ACCELEROMETER X (m/s²),ACCELEROMETER Y (m/s²),ACCELEROMETER Z (m/s²),GRAVITY X (m/s²),GRAVITY Y (m/s²),GRAVITY Z (m/s²),LINEAR ACCELERATION X (m/s²),LINEAR ACCELERATION Y (m/s²),LINEAR ACCELERATION Z (m/s²),GYROSCOPE X (rad/s),GYROSCOPE Y (rad/s),GYROSCOPE Z (rad/s),LIGHT (lux),MAGNETIC FIELD X (μT),MAGNETIC FIELD Y (μT),MAGNETIC FIELD Z (μT),ORIENTATION Z (azimuth °),ORIENTATION X (pitch °),ORIENTATION Y (roll °),PROXIMITY (i),ATMOSPHERIC PRESSURE (hPa),SOUND LEVEL (dB),LOCATION Latitude : ,LOCATION Longitude : ,LOCATION Altitude ( m),LOCATION Altitude-google ( m),LOCATION Altitude-atmospheric pressure ( m),LOCATION Speed ( Kmh),LOCATION Accuracy ( m),LOCATION ORIENTATION (°),Satellites in range,Time since start in ms ,YYYY-MO-DD HH-MI-SS_SSS
-1.4054,5.6672,7.7503,-2.307,5.2543,7.9524,0.5328,0.6907,0.5593,-0.7596,-0.7988,0.2003,0.0,-8.16,-23.46,-41.58,89.96,-33.32,24.22,3.1,1002.75,37.559,45.29216,14.277082,209.69,NaN,,0.0,12.903226,,19 / 19,40,2021-12-05 19:36:43:867
-0.3759,4.621,9.1916,-1.0613,4.1524,8.8205,0.3981,0.2028,0.6704,-0.3631,0.0925,0.0623,0.0,-18.9,-14.34,-41.88,80.46,-25.05,6.86,3.1,1002.79,40.008,45.29216,14.277082,209.69,NaN,,0.0,12.903226,,20 / 20,540,2021-12-05 19:36:44:367
-0.7398,4.3504,8.9139,-0.8176,3.8459,8.9839,0.1256,0.1908,0.3059,-0.2599,0.043,0.0543,0.0,-20.64,-11.4,-40.86,78.19,-23.09,5.2,3.1,1002.78,39.103,45.29216,14.277082,209.69,NaN,,0.0,12.903226,,20 / 20,1040,2021-12-05 19:36:44:867
-0.2346,4.1852,7.5156,-1.1718,3.716,8.9994,0.0848,0.1939,-0.392,0.7652,-0.1696,-0.019,0.0,-17.76,-9.54,-43.5,75.57,-22.27,7.42,3.1,1002.76,53.882,45.292168,14.277087,205.97,NaN,,0.0,12.903226,,19 / 19,1540,2021-12-05 19:36:45:367
-1.743,4.5563,8.2124,-1.6142,4.0274,8.7946,-0.1288,0.5289,-0.5822,-0.3735,0.0296,0.1869,0.0,-15.3,-10.68,-43.68,76.31,-22.81,10.59,3.1,1002.73,66.95,45.292168,14.277087,205.97,NaN,,0.0,12.903226,,19 / 19,2040,2021-12-05 19:36:45:867
-1.5108,3.7135,5.5212,-1.2768,4.7025,8.5104,1.7557,-0.8788,3.5998,0.0236,-0.2172,-0.3085,0.0,-14.22,-8.58,-43.56,60.11,-24.3,5.59,3.1,1002.73,49.007,45.29217,14.277087,205.61,NaN,,0.0,12.903226,,19 / 19,2540,2021-12-05 19:36:46:367
-0.5698,4.7263,9.4071,0.0072,3.7156,9.0755,-0.577,1.0107,0.3316,0.4359,-0.45,0.0952,0.0,-24.18,-5.64,-40.14,73.01,-19.33,0.69,3.1,1002.61,38.289,45.29217,14.277087,205.61,NaN,,0.0,12.903226,,19 / 19,3041,2021-12-05 19:36:46:868
-2.6217,4.3217,4.5372,-2.1407,5.8926,7.5409,-1.4435,1.3405,-3.2264,2.3693,0.7797,0.4941,0.0,-22.38,-5.64,-40.74,71.49,-18.98,0.82,3.1,1002.7,33.462,45.292183,14.277091,203.85,NaN,,2.83,12.903226,44.83,19 / 19,3540,2021-12-05 19:36:47:367
-2.2961,3.838,7.8532,-3.4765,4.9411,7.7246,0.656,-1.479,-1.4181,-0.6013,-0.8177,0.777,0.0,1.74,-13.26,-44.22,69.41,-32.82,35.78,3.1,1002.93,41.233,45.292183,14.277091,203.85,NaN,,2.83,12.903226,44.83,19 / 19,4040,2021-12-05 19:36:47:867
-0.9505,3.8907,8.3967,-0.2142,4.3102,8.806,0.3075,-0.4435,-0.7206,-0.9734,-0.2563,-0.0782,0.0,-18.42,-9.72,-41.82,66.14,-26.53,3.93,3.1,1002.81,49.105,45.292194,14.277106,201.25,NaN,,3.95,12.903226,45.03,18 / 18,4541,2021-12-05 19:36:48:368
0.1413,3.3089,6.4191,-0.5661,3.8412,9.0053,0.7074,-0.5323,-2.5862,0.3651,-0.001,0.2712,0.0,-15.78,-4.62,-43.08,57.67,-23.06,3.6,3.1,1002.82,37.507,45.292194,14.277106,201.25,NaN,,3.95,12.903226,45.03,18 / 18,5040,2021-12-05 19:36:48:867
-0.9122,3.9601,6.7878,-0.0654,3.9223,8.9878,-0.9761,-0.4147,-0.8258,-0.0815,0.1633,-0.2145,0.0,-17.64,-5.4,-42.96,55.55,-23.58,0.42,3.1,1002.83,35.318,45.29221,14.277116,197.96,NaN,,4.07,12.903226,45.2,20 / 20,5540,2021-12-05 19:36:49:367
-0.3639,3.2083,7.1469,-0.3902,4.2675,8.8208,1.3551,-0.0776,0.651,-0.6221,-0.2814,0.3738,0.0,-15.0,-2.52,-45.12,47.0,-25.91,2.39,3.1,1002.81,37.99,45.29221,14.277116,197.96,NaN,,4.07,12.903226,45.2,20 / 20,6042,2021-12-05 19:36:49:869
0.8643,4.0463,10.4582,-0.3582,4.4144,8.7496,0.4564,-0.2292,0.0135,0.6424,-1.1531,-0.2786,0.0,-16.14,-5.76,-43.5,52.36,-26.75,2.34,3.1,1002.82,35.262,45.292225,14.277132,196.6,NaN,,4.3,12.903226,45.09,20 / 20,6540,2021-12-05 19:36:50:367
-0.4334,3.0886,12.3592,-0.4969,4.0743,8.9064,0.2048,0.2952,2.6556,-0.2702,-0.2881,0.1643,0.0,-15.6,-2.82,-43.44,51.76,-24.25,2.52,3.1,1002.8,33.078,45.292225,14.277132,196.6,NaN,,4.3,12.903226,45.09,19 / 20,7040,2021-12-05 19:36:50:867
-0.7446,4.281,9.4861,-0.0194,3.336,9.2218,-0.6438,0.8851,-0.0397,-0.0931,-0.1879,-0.3324,0.0,-17.7,-0.54,-43.44,52.92,-19.89,0.12,3.1,1002.83,36.441,45.292236,14.277145,196.16,NaN,,3.77,12.903226,45.17,20 / 20,7540,2021-12-05 19:36:51:367
-0.067,3.5411,8.6625,-0.1902,3.3767,9.205,0.5876,0.4853,-0.7652,-0.0809,0.0558,0.3176,0.0,-18.18,-3.84,-42.3,58.66,-21.4,1.14,3.1,1002.85,35.167,45.292236,14.277145,196.16,NaN,,3.77,12.903226,45.17,20 / 20,8040,2021-12-05 19:36:51:867
0.3472,3.2969,8.5739,-0.3946,3.8298,9.0193,0.4952,-0.2384,-1.9155,0.6473,0.2012,0.2577,0.0,-16.68,-1.38,-43.86,48.87,-22.28,1.16,3.1,1002.84,36.795,45.292248,14.277156,195.83,NaN,,3.71,12.903226,48.53,19 / 19,8540,2021-12-05 19:36:52:367
0.6967,4.9969,10.2044,-0.1448,3.7532,9.0589,-0.4322,1.3825,0.9636,0.4243,-0.0883,-0.1399,0.0,-18.48,-2.88,-42.78,54.84,-21.7,0.68,3.1,1002.85,33.892,45.292248,14.277156,195.83,NaN,,3.71,12.903226,48.53,19 / 19,9041,2021-12-05 19:36:52:868
0.3137,4.6449,8.2746,-0.1202,3.5421,9.1438,0.4985,0.6886,-0.8453,-0.0454,0.1297,0.3231,0.0,-18.84,-3.24,-42.24,57.86,-21.17,0.75,3.1,1002.85,36.432,45.29226,14.277168,195.7,NaN,,3.48,12.903226,49.48,19 / 19,9541,2021-12-05 19:36:53:368
0.4645,3.6513,8.3225,0.0067,3.6038,9.1205,0.4578,0.0474,-0.798,-0.1291,-0.1342,0.1881,0.0,-17.4,-2.16,-42.24,51.33,-21.56,-0.04,3.1,1002.89,37.419,45.29226,14.277168,195.7,NaN,,3.48,12.903226,49.48,19 / 19,10040,2021-12-05 19:36:53:867
-0.1389,3.0407,8.0807,-0.1424,3.8376,9.0235,0.5064,-0.0666,-0.0976,0.6998,-0.202,-1.0E-4,0.0,-19.62,-4.68,-40.98,61.27,-23.04,0.9,3.1,1002.89,46.131,45.292267,14.27718,195.4,NaN,,3.33,12.903226,46.28,19 / 20,10540,2021-12-05 19:36:54:367
-0.0934,3.9218,12.5795,-0.3962,3.7355,9.0587,0.0658,-0.8624,2.8265,0.519,0.5073,0.4276,0.0,-15.96,-2.64,-42.36,54.43,-22.42,2.85,3.1,1002.88,34.868,45.292267,14.27718,195.4,NaN,,3.33,12.903226,46.28,19 / 20,11040,2021-12-05 19:36:54:867
-0.8188,3.8476,9.9362,-0.3235,3.7376,9.0607,-0.8066,1.2305,1.0001,0.4115,0.0552,-0.1607,0.0,-16.56,-3.42,-42.12,54.85,-22.0,1.57,3.1,1002.84,35.506,45.29228,14.277184,195.09,NaN,,3.25,12.903226,45.88,19 / 19,11540,2021-12-05 19:36:55:367
0.091,4.6281,8.0448,-0.3554,3.7365,9.06,0.4464,0.8917,-1.0152,0.1977,0.2134,0.3121,0.0,-17.16,-4.14,-41.94,56.55,-22.48,1.9,3.1,1002.87,35.209,45.29228,14.277184,195.09,NaN,,3.25,12.903226,45.88,19 / 19,12040,2021-12-05 19:36:55:867
-0.4573,3.2227,7.3049,-0.4267,3.8906,8.9917,0.4315,-0.1627,-2.0005,-0.054,-0.1201,-0.0758,0.0,-14.82,-2.94,-41.64,51.28,-23.37,2.72,3.1,1002.89,37.045,45.29229,14.277193,193.29,NaN,,3.82,12.903226,29.92,19 / 20,12540,2021-12-05 19:36:56:367
-1.8747,3.8739,7.1517,-0.5511,4.6455,8.6189,2.6987,-0.1275,0.7259,0.3174,-0.15,-0.0868,0.0,-14.22,-9.06,-41.88,55.36,-28.28,3.66,3.1,1002.89,40.558,45.29229,14.277193,193.29,NaN,,3.82,12.903226,29.92,19 / 20,13041,2021-12-05 19:36:56:868
-0.8955,3.5435,8.4638,-1.2273,4.4731,8.6404,-0.3194,0.1503,2.2488,-0.4669,0.5732,0.4092,0.0,-11.4,-6.3,-42.12,52.43,-27.14,8.08,3.1,1002.91,34.99,45.2923,14.277203,193.25,NaN,,3.78,12.903226,28.05,20 / 21,13540,2021-12-05 19:36:57:367
-0.4405,5.2075,11.9474,-0.8101,4.0204,8.9079,-0.6648,-0.9007,3.2742,0.3938,0.3283,-0.3372,0.0,-10.74,-3.06,-42.6,51.38,-23.6,8.29,3.1,1002.9,36.229,45.2923,14.277203,193.25,NaN,,3.78,12.903226,28.05,20 / 21,14040,2021-12-05 19:36:57:867
-1.1469,4.8723,7.2403,-0.735,4.3141,8.776,-0.3353,0.721,3.3725,0.1274,0.5457,0.3158,0.0,-13.8,-3.12,-42.54,49.27,-23.97,3.57,3.1,1002.89,36.631,45.29231,14.277213,193.23,NaN,,3.93,12.903226,41.69,20 / 20,14540,2021-12-05 19:36:58:367
0.5459,6.7327,10.475,0.3208,4.5176,8.6982,0.2251,2.2151,1.7767,1.1299,1.5793,-2.4362,0.0,-16.02,-1.08,-41.22,47.02,-22.26,-0.39,3.1,1002.98,42.634,45.29231,14.277213,193.23,NaN,,3.93,12.903226,41.69,20 / 20,15040,2021-12-05 19:36:58:867
-1.1062,4.245,6.0839,-1.3384,3.032,9.2296,-0.0455,-0.3121,-1.4315,0.428,-1.9643,0.4147,0.0,-15.12,1.32,-40.86,58.24,-18.01,8.25,3.1,1002.96,56.598,45.292316,14.277219,193.19,NaN,,4.0,9.677419,42.16,20 / 20,15540,2021-12-05 19:36:59:367
-1.3647,0.4453,11.6529,-2.0278,1.4518,9.4842,0.8498,-2.115,-2.4235,-2.4761,6.9494,0.0238,0.0,5.88,14.76,-39.0,6.31,-8.51,12.07,3.1,1002.69,48.496,45.292316,14.277219,193.19,NaN,,4.0,9.677419,42.16,20 / 20,16040,2021-12-05 19:36:59:867
-17.3345,0.1173,4.4462,-8.9634,0.216,3.9725,-2.1149,-1.916,-4.4801,-4.2506,1.4834,-1.27,0.0,34.08,13.08,-19.5,14.55,-1.26,66.1,3.1,1003.11,54.919,45.292324,14.277229,193.14,NaN,,4.03,9.677419,48.6,18 / 20,16540,2021-12-05 19:37:00:367
-8.119,2.4206,5.368,-9.5591,0.0861,-2.1879,1.4401,2.3345,7.5558,-0.0247,-1.106,-1.5132,0.0,32.64,4.68,28.2,289.95,-3.36,102.85,3.1,1002.86,54.548,45.292324,14.277229,193.14,NaN,,4.03,9.677419,48.6,18 / 20,17040,2021-12-05 19:37:00:867
4.4701,-2.0064,8.5404,-9.6976,-0.3229,1.422,9.0296,-0.0386,5.3969,0.1586,0.5989,-1.3275,0.0,37.92,14.28,13.44,304.89,1.89,81.66,3.1,1003.15,52.124,45.292328,14.277235,193.09,NaN,,3.99,9.677419,29.38,19 / 20,17540,2021-12-05 19:37:01:367
-4.5228,0.0048,3.8644,-8.1225,5.0353,2.2002,5.4241,-3.0026,-3.3208,3.0241,-2.1121,-2.0532,0.0,41.1,-3.72,-16.44,13.94,-30.89,74.84,3.1,1003.12,59.511,45.292328,14.277235,193.09,NaN,,3.99,9.677419,29.38,19 / 20,18040,2021-12-05 19:37:01:867
-1.1684,0.8595,7.9418,0.1817,-1.2678,9.7227,0.2205,2.192,1.3964,1.2545,-2.4652,0.1759,0.0,-16.98,20.4,-36.12,47.16,7.43,-1.07,3.1,1002.97,43.256,45.292336,14.27724,193.05,NaN,,3.97,9.677419,11.93,20 / 20,18540,2021-12-05 19:37:02:367
1.0319,-0.1006,8.5907,0.8606,-0.0155,9.7688,0.1713,-0.085,-1.1781,-0.3741,2.0E-4,-0.3916,0.0,-21.96,13.44,-38.22,55.15,0.09,-5.03,3.1,1002.99,42.494,45.292336,14.27724,193.05,NaN,,3.97,9.677419,11.93,20 / 20,19040,2021-12-05 19:37:02:867
-3.5124,-1.2881,10.1948,-2.5296,-2.7536,9.0658,0.1042,1.5876,-0.8726,-1.5408,-1.2991,-0.6097,0.0,-4.5,24.3,-38.88,33.83,11.44,10.06,3.1,1003.08,46.4,45.292343,14.277243,193.01,NaN,,3.97,9.677419,9.15,18 / 18,19541,2021-12-05 19:37:03:368
-5.2459,5.0639,4.1349,-5.4104,6.1806,5.357,0.1646,-1.1167,-1.2221,-1.8194,-0.139,0.0885,0.0,15.96,-26.22,-36.66,77.31,-39.07,45.28,3.1,1003.24,47.483,45.292343,14.277243,193.01,NaN,,3.97,9.677419,9.15,18 / 18,20041,2021-12-05 19:37:03:868
-4.7718,5.6481,4.9609,-3.1503,5.9389,7.1397,-1.1953,0.0061,-1.5778,-0.0387,-0.745,0.6426,0.0,2.4,-20.16,-43.98,60.65,-38.0,24.78,3.1,1003.03,43.809,45.29235,14.277246,192.97,NaN,,4.06,9.677419,13.42,18 / 19,20540,2021-12-05 19:37:04:367
-1.1109,5.7391,5.8564,-2.8931,5.9661,7.2254,0.5108,-0.1169,-2.432,-0.2898,0.0699,0.8747,0.0,1.98,-19.14,-42.54,55.64,-37.47,21.82,3.1,1002.99,40.782,45.29235,14.277246,192.97,NaN,,4.06,9.677419,13.42,18 / 19,21040,2021-12-05 19:37:04:867
-2.344,3.9122,7.0583,-0.6199,4.6651,8.6037,-1.377,-0.7456,-0.2931,-0.3747,0.5225,0.1527,0.0,-6.6,-8.58,-42.0,44.56,-31.37,8.58,3.1,1003.11,63.979,45.292362,14.277254,192.91,NaN,,4.13,9.677419,20.45,18 / 18,21540,2021-12-05 19:37:05:367
-1.7598,3.6201,8.2004,-1.0624,4.7162,8.5323,-0.6974,-1.096,-0.3319,-0.112,0.754,0.3921,0.0,0.66,-6.66,-40.74,16.8,-28.75,7.1,3.1,1003.07,42.387,45.292362,14.277254,192.91,NaN,,4.13,9.677419,20.45,18 / 18,22041,2021-12-05 19:37:05:868
-1.2929,3.8883,7.858,-1.1121,4.863,8.443,0.3076,-0.5509,-0.2331,0.2227,-0.6735,0.2797,0.0,3.84,-4.92,-38.28,3.91,-29.73,7.5,3.1,1003.07,34.213,45.292377,14.277262,192.86,NaN,,4.17,9.677419,15.52,18 / 21,22540,2021-12-05 19:37:06:367
-0.7087,4.7526,7.6832,-0.7591,4.8166,8.5085,1.2044,-0.9882,0.6113,-0.4511,0.3362,0.1649,0.0,11.1,-2.76,-41.1,337.8,-29.42,5.1,3.1,1003.07,35.303,45.292377,14.277262,192.86,NaN,,4.17,9.677419,15.52,18 / 21,23040,2021-12-05 19:37:06:867
-0.4597,3.7111,9.0839,-1.0614,4.7463,8.5157,0.6017,-1.0351,0.5682,0.4341,0.4657,-0.1332,0.0,11.28,-0.12,-42.54,345.28,-28.95,7.1,3.1,1003.08,35.81,45.29239,14.27727,192.82,NaN,,4.18,9.677419,346.82,18 / 18,23541,2021-12-05 19:37:07:368
-1.0774,5.5212,12.4957,-1.1675,3.774,8.9758,0.0901,1.7472,3.5199,-0.3008,-0.7872,-0.3238,0.0,10.8,7.86,-43.38,347.58,-22.63,7.41,3.1,1003.08,42.011,45.29239,14.27727,192.82,NaN,,4.18,9.677419,346.82,18 / 18,24041,2021-12-05 19:37:07:868
-4.0439,2.8755,14.1909,-2.1025,3.3845,8.9608,-0.9071,-0.1977,0.6044,-0.641,-0.1335,-1.1851,0.0,12.54,9.54,-45.06,354.68,-20.19,13.2,3.1,1003.07,41.512,45.2924,14.277273,192.78,NaN,,4.15,9.677419,343.47,18 / 18,24540,2021-12-05 19:37:08:367
-0.9745,4.3528,12.0839,-1.1602,3.3167,9.1555,-0.6164,1.1295,1.2404,0.2252,-0.4084,0.24,0.0,-0.78,7.14,-46.92,17.18,-19.77,7.22,3.1,1003.13,47.648,45.2924,14.277273,192.78,NaN,,4.15,9.677419,343.47,18 / 18,25040,2021-12-05 19:37:08:867
-1.3791,6.5412,10.6449,-1.8041,4.6895,8.4216,0.7003,0.2762,0.679,0.4768,-0.1995,0.1221,0.0,6.78,0.36,-47.88,7.9,-28.57,12.09,3.1,1003.07,42.419,45.292404,14.277274,192.74,NaN,,4.16,9.677419,343.7,20 / 20,25540,2021-12-05 19:37:09:367
-1.4653,5.617,7.4103,-1.4103,5.0619,8.28,-1.2066,1.4649,0.179,0.2362,-0.2502,-0.1754,0.0,-0.18,-4.38,-46.92,21.06,-31.08,9.67,3.1,1003.11,51.959,45.292404,14.277274,192.74,NaN,,4.16,9.677419,343.7,20 / 20,26040,2021-12-05 19:37:09:867
-1.2594,5.186,7.621,-1.5721,4.9777,8.3019,0.3128,0.2083,-0.6809,0.4457,-0.169,-0.1137,0.0,1.44,-3.18,-47.28,20.33,-30.5,10.72,3.1,1003.13,45.351,45.292416,14.27727,192.71,NaN,,4.21,9.677419,358.48,18 / 18,26540,2021-12-05 19:37:10:367
-0.9242,4.6281,5.6744,-1.0997,4.7824,8.4906,-0.2626,0.0469,-2.5288,0.0126,-0.2466,-0.5358,0.0,-4.02,-5.76,-44.76,30.92,-29.19,7.38,3.1,1003.14,42.986,45.292416,14.27727,192.71,NaN,,4.21,9.677419,358.48,18 / 18,27040,2021-12-05 19:37:10:867
-1.1732,4.9418,5.7989,-2.3149,5.3095,7.9133,0.7802,-0.418,-2.9644,0.4958,0.0027,0.0977,0.0,-0.42,-8.52,-44.64,38.62,-32.78,16.31,3.1,1003.14,42.012,45.29243,14.277271,192.68,NaN,,4.29,9.677419,0.72,20 / 20,27541,2021-12-05 19:37:11:368
-1.7837,5.7606,9.6298,-2.3192,6.0811,7.3356,0.5355,-0.3205,2.2941,-0.8139,-0.0462,-0.5737,0.0,-2.16,-18.0,-41.7,54.64,-38.32,17.54,3.1,1003.17,43.292,45.29243,14.277271,192.68,NaN,,4.29,9.677419,0.72,20 / 20,28040,2021-12-05 19:37:11:867
-0.1365,3.5339,6.7423,-0.9959,4.9723,8.3937,3.1484,-0.3226,0.5393,-1.8616,-0.5459,0.6994,0.0,-13.98,-10.62,-42.0,60.12,-30.47,6.77,3.1,1003.07,44.223,45.292442,14.277272,192.66,NaN,,4.29,9.677419,28.4,18 / 19,28540,2021-12-05 19:37:12:367
2.0088,5.344,8.3632,-0.5794,4.38,8.755,-0.7782,-0.9921,0.2044,-0.3448,0.2079,-0.5321,0.0,-15.66,-10.38,-41.94,66.44,-26.86,6.74,3.1,1003.07,43.661,45.292442,14.277272,192.66,NaN,,4.29,9.677419,28.4,18 / 19,29041,2021-12-05 19:37:12:868
-3.9745,5.4278,7.5491,-3.2987,6.2348,6.8129,-0.6758,-0.807,0.7362,-0.0112,0.3069,0.0458,0.0,-0.42,-19.38,-41.94,62.9,-39.48,25.84,3.1,1003.09,42.475,45.292454,14.277282,192.63,NaN,,4.28,9.677419,33.93,19 / 19,29540,2021-12-05 19:37:13:367
-4.2762,7.1613,9.692,-3.2516,7.1779,5.8374,-1.0246,-0.0167,3.8547,-1.1578,-1.0957,-0.719,0.0,2.82,-26.7,-38.28,62.89,-47.91,28.14,3.1,1003.11,43.066,45.292454,14.277282,192.63,NaN,,4.28,9.677419,33.93,19 / 19,30040,2021-12-05 19:37:13:867
-3.6106,9.7303,7.3241,-1.7391,6.8687,6.7799,-1.8715,2.8616,0.5442,-0.3662,0.0668,0.4202,0.0,-11.46,-22.08,-38.64,68.76,-40.21,9.82,3.1,1003.15,44.016,45.29246,14.277291,192.62,NaN,,4.27,9.677419,44.98,18 / 19,30540,2021-12-05 19:37:14:367
-1.8532,7.3073,9.3544,-0.7896,5.2786,8.227,-0.6278,0.6353,0.4714,0.5153,-0.3699,-0.311,0.0,-15.42,-12.48,-42.12,58.48,-32.57,5.48,3.1,1003.14,43.487,45.29246,14.277291,192.62,NaN,,4.27,9.677419,44.98,18 / 19,31041,2021-12-05 19:37:14:868
-0.8979,6.0024,8.5188,-1.1298,4.9761,8.3745,1.1801,0.6816,0.106,0.9521,-0.1678,0.6682,0.0,-15.0,-14.46,-42.18,68.57,-30.49,7.68,3.1,1003.11,46.23,45.29247,14.277302,192.61,NaN,,4.27,9.677419,42.39,19 / 19,31541,2021-12-05 19:37:15:368
-3.7686,7.4414,3.2562,-2.4827,7.2883,6.0735,-0.5101,0.2178,-1.8452,-0.0418,-1.453,-0.1662,0.0,-3.36,-22.38,-41.1,65.46,-44.55,25.65,3.1,1003.19,45.071,45.29247,14.277302,192.61,NaN,,4.27,9.677419,42.39,19 / 19,32040,2021-12-05 19:37:15:867
-2.0327,5.7127,4.9657,-1.4484,5.7834,7.7862,0.541,-0.6045,-0.2826,0.056,-0.2808,-0.0288,0.0,-11.1,-17.52,-41.46,66.65,-37.87,13.37,3.1,1003.12,43.015,45.292477,14.277315,192.6,NaN,,4.27,9.677419,27.14,18 / 19,32540,2021-12-05 19:37:16:367
-1.3264,3.9194,7.1182,-2.2535,3.9736,8.6777,0.9271,-0.0541,-1.5595,0.3345,-0.2496,0.2046,0.0,-8.46,-7.26,-45.78,49.48,-26.39,9.6,3.1,1003.18,46.058,45.292477,14.277315,192.6,NaN,,4.27,9.677419,27.14,18 / 19,33041,2021-12-05 19:37:16:868
-0.4884,3.4047,6.9554,-0.211,4.041,8.9329,-0.5791,-0.5573,-2.7868,-0.0088,0.0467,0.3402,0.0,-16.5,-7.62,-42.66,58.88,-24.33,1.35,3.1,1003.22,45.001,45.29249,14.277325,192.6,NaN,,4.28,9.677419,29.2,20 / 20,33540,2021-12-05 19:37:17:367
2.5331,2.8827,6.2084,0.5068,4.5539,8.6704,-0.7702,-1.4413,-3.6376,-0.2751,-1.5019,-0.2523,0.0,-22.26,-7.8,-39.72,58.45,-27.67,-3.35,3.1,1003.02,49.682,45.29249,14.277325,192.6,NaN,,4.28,9.677419,29.2,20 / 20,34040,2021-12-05 19:37:17:867
-3.6632,-0.4214,8.4638,-1.4501,1.4403,9.5913,0.3128,-0.1282,1.42,-0.5085,1.079,-0.0807,0.0,-8.28,3.72,-44.7,54.83,-8.45,8.6,3.1,1003.2,52.645,45.292496,14.277334,192.6,NaN,,4.28,9.677419,37.48,19 / 19,34540,2021-12-05 19:37:18:367
-11.143,-1.6257,4.5276,-9.7214,-1.1851,0.5101,0.5513,3.6848,6.0359,-4.6282,1.6899,-1.9017,0.0,45.9,10.56,1.74,345.93,-9.64,86.7,3.1,1003.62,55.877,45.292496,14.277334,192.6,NaN,,4.28,9.677419,37.48,19 / 19,35040,2021-12-05 19:37:18:867
-8.1525,-6.6513,-3.0814,-8.8042,-2.8076,3.2823,0.6517,-3.8437,-6.3638,3.599,-0.7218,-1.9805,2.0,36.66,29.76,6.48,328.8,6.49,74.41,0.0,1003.37,55.4,45.292507,14.277347,192.61,NaN,,4.26,9.677419,29.46,19 / 21,35540,2021-12-05 19:37:19:367
-7.676,-12.3808,0.1389,-6.0989,-7.2816,2.4395,-3.1501,-3.2532,-2.4922,-1.5237,-0.9539,-1.2761,0.0,17.16,42.84,1.08,346.51,33.16,70.66,0.0,1003.28,66.085,45.292507,14.277347,192.61,NaN,,4.26,9.677419,29.46,19 / 21,36040,2021-12-05 19:37:19:867
-1.6904,-6.5172,-0.4358,-4.4339,-8.7455,0.1648,6.7228,-1.0088,-0.2246,0.7487,0.9251,-3.785,0.0,-9.54,42.84,8.94,343.26,63.1,87.87,0.0,1003.12,61.057,45.29252,14.277358,192.63,NaN,,4.26,9.677419,24.41,19 / 19,36540,2021-12-05 19:37:20:367
3.0838,-14.2555,-8.4877,-0.5221,-9.7898,0.2381,-0.1028,0.7347,-7.8327,0.2838,-0.0853,-1.3495,0.0,-19.44,34.56,22.32,336.88,86.65,65.48,0.0,1003.16,62.836,45.29252,14.277358,192.63,NaN,,4.26,9.677419,24.41,19 / 19,37040,2021-12-05 19:37:20:867
1.0559,-11.5356,-4.8508,-0.3216,-9.795,-0.3529,1.1596,-4.9035,-2.2784,0.9698,0.4333,-0.2713,0.0,-22.44,35.76,22.02,270.58,87.21,137.65,0.0,1003.5,57.238,45.292538,14.277371,192.65,NaN,,4.33,9.677419,13.63,17 / 19,37540,2021-12-05 19:37:21:367
1.2139,-9.0647,-7.36,0.8362,-9.762,0.4177,1.0553,-4.6324,3.1785,-1.5146,-0.4622,-0.0868,0.0,-19.98,39.66,21.6,44.99,81.57,-10.47,0.0,1003.25,57.067,45.292538,14.277371,192.65,NaN,,4.33,9.677419,13.63,17 / 19,38040,2021-12-05 19:37:21:867
5.0016,-11.7272,-2.2913,0.7013,-9.7757,-0.3373,4.3003,-1.9515,-1.954,0.0474,-0.6448,-0.1784,0.0,-23.04,36.18,27.18,162.63,84.37,-123.99,0.0,1003.35,58.179,45.292553,14.277381,192.68,NaN,,4.45,9.677419,19.2,17 / 19,38540,2021-12-05 19:37:22:367
2.9833,-9.795,-5.7702,1.2168,-9.6704,1.083,-0.0675,-0.3568,-9.2116,0.8159,-1.4463,-0.0825,0.0,-16.02,39.6,25.5,105.26,85.29,-79.68,0.0,1003.22,53.11,45.292553,14.277381,192.68,NaN,,4.45,9.677419,19.2,17 / 19,39040,2021-12-05 19:37:22:867
7.6569,-10.9275,-4.3552,0.0935,-9.7986,-0.3848,1.5011,-4.4952,-6.3743,0.9521,-0.2007,0.3433,0.0,-17.58,34.14,31.68,166.62,81.79,-139.15,0.0,1003.2,56.949,45.292564,14.277389,192.71,NaN,,4.54,9.677419,17.16,19 / 20,39540,2021-12-05 19:37:23:367
1.1277,-14.1119,-5.9953,0.0616,-9.7579,0.975,-0.5213,-7.3205,-11.019,0.18,-0.8257,0.2602,0.0,-2.52,41.58,29.58,8.23,84.28,-3.61,0.0,1003.27,56.664,45.292564,14.277389,192.71,NaN,,4.54,9.677419,17.16,19 / 20,40041,2021-12-05 19:37:23:868
8.3273,-10.554,-3.8021,0.0508,-9.8065,0.0264,-3.2999,-5.9119,-10.1422,0.2875,0.2904,0.7794,0.0,-2.88,38.22,33.6,67.25,89.67,-62.55,0.0,1003.57,53.174,45.292576,14.277396,192.74,NaN,,4.53,9.677419,7.62,19 / 20,40541,2021-12-05 19:37:24:368
0.4932,-18.9172,-7.0056,0.2741,-9.8018,-0.1422,-2.4217,-4.0347,7.7201,0.6558,-0.9619,-0.1002,0.0,6.0,41.28,29.28,103.29,88.2,-117.42,0.0,1003.32,57.068,45.292576,14.277396,192.74,NaN,,4.53,9.677419,7.62,19 / 20,41040,2021-12-05 19:37:24:867
0.6129,-14.1765,-7.8987,-0.0115,-9.7662,-0.8898,0.6245,-4.4103,-7.0089,0.6259,0.3234,0.4416,0.0,5.22,37.32,36.18,151.14,80.9,-163.82,0.0,1003.5,54.415,45.292583,14.277395,192.77,NaN,,4.55,9.677419,332.69,20 / 21,41541,2021-12-05 19:37:25:368
3.1988,-20.2149,-5.3368,-0.0399,-9.804,0.2224,3.2387,-10.4108,-5.5593,-0.5622,0.682,-0.3415,0.0,12.9,40.32,27.78,163.35,86.3,170.34,0.0,1003.25,57.245,45.292583,14.277395,192.77,NaN,,4.55,9.677419,332.69,20 / 21,42040,2021-12-05 19:37:25:867
-2.1165,-14.1789,1.2785,0.5081,-9.7249,-1.1571,-0.137,-3.6519,-2.0393,0.701,1.3698,0.6407,0.0,8.76,37.8,32.52,135.91,77.69,-161.43,0.0,1003.27,58.121,45.2926,14.277384,192.8,NaN,,4.54,9.677419,322.1,20 / 20,42540,2021-12-05 19:37:26:367
1.1181,-15.2779,-2.7438,0.5677,-9.7891,-0.1497,-1.7935,-4.7657,3.2455,0.7688,-0.5709,-0.468,0.0,9.6,44.4,22.44,74.32,86.57,-104.77,0.0,1003.23,55.083,45.2926,14.277384,192.8,NaN,,4.54,9.677419,322.1,20 / 20,43040,2021-12-05 19:37:26:867
0.929,-14.1478,1.2378,0.7905,-9.5997,-1.8415,0.6748,-3.4802,3.8623,0.3492,0.2293,-0.0434,0.0,12.12,44.22,25.86,114.64,78.21,-156.77,0.0,1003.32,55.688,45.29261,14.277372,192.83,NaN,,4.43,12.903226,293.8,19 / 19,43540,2021-12-05 19:37:27:367
3.8548,-17.471,-7.3863,0.0213,-9.7972,-0.43,-2.0565,-0.2947,0.0541,0.4115,-1.1079,0.0452,0.0,16.62,45.3,16.26,126.49,87.48,-177.16,0.0,1003.25,56.308,45.29261,14.277372,192.83,NaN,,4.43,12.903226,293.8,19 / 19,44040,2021-12-05 19:37:27:867
-1.4581,-14.6051,2.5834,0.1454,-9.7509,-1.0335,0.6567,-3.0273,-4.0567,0.6858,1.0882,0.4807,0.0,15.3,40.26,20.22,116.82,78.98,-170.21,0.0,1003.47,57.255,45.29261,14.277349,192.86,NaN,,4.36,12.903226,243.84,18 / 18,44540,2021-12-05 19:37:28:367
-1.6688,-10.1829,0.4022,-0.0073,-9.8057,-0.1358,-1.6543,-5.7906,7.4982,0.5385,-0.6204,0.0989,0.0,15.3,38.64,17.7,124.46,83.58,-173.29,0.0,1003.27,59.027,45.29261,14.277349,192.86,NaN,,4.36,12.903226,243.84,18 / 18,45040,2021-12-05 19:37:28:867
-2.0064,-14.1142,1.9753,0.1298,-9.7131,-1.3451,-1.3724,-2.8521,3.5933,0.2551,0.4669,-0.0727,0.0,17.22,34.68,21.66,130.54,78.91,-179.49,0.0,1003.17,63.641,45.292606,14.277332,192.89,NaN,,4.3,12.903226,251.75,17 / 18,45540,2021-12-05 19:37:29:367
-1.0631,-9.5029,1.5371,-0.2943,-9.7938,-0.4069,-0.7688,0.2909,1.944,0.4695,-1.1372,-0.0465,0.0,16.38,38.76,19.44,175.4,87.06,144.13,0.0,1003.33,51.891,45.292606,14.277332,192.89,NaN,,4.3,12.903226,251.75,17 / 18,46041,2021-12-05 19:37:29:868
-0.5196,-11.7583,0.8164,0.1,-9.7058,-1.3991,-1.5342,1.7472,0.9203,-0.1071,0.7852,-0.0874,0.0,15.12,35.82,23.16,134.82,81.78,-175.91,0.0,1003.3,58.339,45.292606,14.277318,192.93,NaN,,4.28,12.903226,254.86,18 / 19,46541,2021-12-05 19:37:30:368
-0.0575,-7.8269,1.858,-0.3157,-9.7696,-0.7904,-0.3738,2.6515,2.0546,0.023,-0.3871,-0.0697,0.0,15.6,36.48,20.52,162.35,85.02,158.22,0.0,1003.52,52.906,45.292606,14.277318,192.93,NaN,,4.28,12.903226,254.86,18 / 19,47040,2021-12-05 19:37:30:867
-1.0271,-8.4183,0.4597,-0.3579,-9.6889,-1.472,-0.4394,-0.118,2.2621,0.004,0.831,0.1209,0.0,17.04,32.4,23.64,149.94,80.4,169.17,0.0,1003.36,53.613,45.292606,14.277298,192.96,NaN,,4.3,12.903226,266.86,17 / 18,47540,2021-12-05 19:37:31:367
-0.9553,-6.2395,1.0487,-0.3978,-9.7452,-1.0212,0.3978,2.4044,2.9414,-0.2696,0.142,-0.0227,0.0,9.48,31.98,27.6,172.29,82.96,168.81,0.0,1003.6,55.212,45.292606,14.277298,192.96,NaN,,4.3,12.903226,266.86,17 / 18,48040,2021-12-05 19:37:31:867
-1.1971,-8.2267,0.2849,-0.3631,-9.6168,-1.8858,-0.1325,3.406,0.9305,-0.3729,0.7815,0.1368,0.0,10.02,30.3,30.24,183.38,81.97,158.67,0.0,1003.29,60.945,45.29261,14.277282,192.99,NaN,,4.22,12.903226,311.89,18 / 18,48540,2021-12-05 19:37:32:367
-1.2426,-4.3265,0.0479,0.0084,-9.6887,-1.5162,-1.2511,5.3622,1.5641,0.0566,0.4578,0.0134,0.0,-2.28,29.7,35.46,183.45,81.11,-179.68,0.0,1003.6,56.221,45.29261,14.277282,192.99,NaN,,4.22,12.903226,311.89,18 / 18,49040,2021-12-05 19:37:32:867
-0.2825,-5.0854,0.1317,-0.2944,-9.689,-1.4856,1.2617,4.3426,1.4544,-0.4639,-0.1085,-0.0605,0.0,-2.4,34.74,37.44,196.93,81.12,168.79,0.0,1003.31,59.235,45.292618,14.277274,193.01,NaN,,4.14,12.903226,344.05,18 / 20,49540,2021-12-05 19:37:33:367
-2.0758,-4.779,-1.9753,0.0439,-9.7648,-0.9038,-1.0759,2.7879,-0.0324,0.1012,0.539,-0.0343,0.0,-10.44,41.94,32.16,196.52,84.71,-177.22,0.0,1003.89,52.416,45.292618,14.277274,193.01,NaN,,4.14,12.903226,344.05,18 / 20,50040,2021-12-05 19:37:33:867
0.8572,-4.3073,1.0439,-0.5712,-9.7042,-1.2933,0.1067,4.8462,1.4801,-0.6789,0.0656,-0.2077,0.0,-4.98,46.38,28.38,253.3,86.38,122.47,0.0,1003.35,58.824,45.29263,14.27727,193.02,NaN,,4.1,12.903226,307.91,19 / 19,50540,2021-12-05 19:37:34:367
-0.8667,-8.878,-1.1445,-0.27,-9.7543,-0.9752,-0.6901,4.6928,-0.799,0.1421,0.7284,0.1429,0.0,-5.94,44.64,25.08,236.96,84.36,144.98,0.0,1004.01,53.899,45.29263,14.27727,193.02,NaN,,4.1,12.903226,307.91,19 / 19,51040,2021-12-05 19:37:34:867
1.0367,-5.8061,0.4525,-0.7345,-9.7295,-0.984,-0.4052,1.4333,0.3926,-0.6893,-0.4756,-0.0575,0.0,-2.88,40.86,25.74,232.54,82.81,143.26,0.0,1003.36,57.665,45.29264,14.277257,193.03,NaN,,4.06,12.903226,356.45,19 / 19,51540,2021-12-05 19:37:35:367
2.6792,-10.1038,-0.1844,-0.6556,-9.7539,-0.7761,3.3348,-0.35,0.5918,0.0529,-0.4029,0.0445,0.0,-4.98,39.3,24.24,240.36,84.05,139.81,0.0,1003.74,56.207,45.29264,14.277257,193.03,NaN,,4.06,12.903226,356.45,19 / 19,52040,2021-12-05 19:37:35:867
-1.2833,-11.0903,-2.7774,-0.6151,-9.7871,-0.07,2.5329,1.5699,-1.4719,-0.6484,0.3924,-0.3501,0.0,-4.5,38.28,23.28,282.65,85.6,92.65,0.0,1003.29,53.855,45.292656,14.277249,193.03,NaN,,4.04,12.903226,328.98,19 / 20,52540,2021-12-05 19:37:36:367
3.3544,-9.0456,-5.9139,-0.862,-9.7045,-1.1178,-0.3208,-3.0067,-4.0467,0.2942,0.2971,0.138,0.0,-6.3,33.18,28.98,237.43,81.72,142.36,0.0,1003.65,53.973,45.292656,14.277249,193.03,NaN,,4.04,12.903226,328.98,19 / 20,53040,2021-12-05 19:37:36:867
0.9122,-9.4191,-4.111,-0.3103,-9.7998,-0.1941,0.1738,-0.7206,-5.7509,0.0737,-0.067,0.2382,0.0,-10.62,36.78,27.42,262.84,87.86,122.02,0.0,1003.28,54.972,45.29267,14.277238,193.03,NaN,,3.98,12.903226,352.84,17 / 18,53540,2021-12-05 19:37:37:367
-1.8412,-15.4934,-4.0296,-0.7118,-9.749,-0.7872,0.9513,-0.3883,-3.264,0.5159,0.1835,-0.0782,0.0,-11.34,37.38,30.66,224.65,81.24,162.18,0.0,1003.52,53.343,45.29267,14.277238,193.03,NaN,,3.98,12.903226,352.84,17 / 18,54040,2021-12-05 19:37:37:867
-1.3863,-15.5891,-2.4781,-0.7838,-9.7567,0.6022,-0.1643,-8.3344,-3.7841,1.4157,-0.6198,0.2681,0.0,-5.22,43.98,25.44,324.51,84.22,52.47,0.0,1003.46,56.76,45.292686,14.277234,193.03,NaN,,3.93,12.903226,341.7,20 / 21,54540,2021-12-05 19:37:38:367
-1.1349,-13.4223,1.5826,-0.5511,-9.7295,-1.0973,-0.5838,-3.6928,2.6799,-0.0894,0.3521,0.1288,0.0,-6.66,39.66,29.28,227.62,82.81,153.33,0.0,1003.3,56.027,45.292686,14.277234,193.03,NaN,,3.93,12.903226,341.7,20 / 21,55040,2021-12-05 19:37:38:867
-1.8747,-15.1582,6.7566,-0.4874,-9.7881,-0.3543,-0.8295,-1.6829,3.0359,0.5239,-1.2227,0.1166,0.0,-7.98,41.76,24.24,225.87,85.1,158.52,0.0,1003.36,54.406,45.292706,14.277227,193.03,NaN,,3.91,12.903226,350.2,19 / 19,55540,2021-12-05 19:37:39:367
-1.0176,-10.1374,0.0575,-0.6349,-9.6983,-1.3074,-1.1656,1.9481,1.2332,-0.1029,0.9086,-0.1222,0.0,-8.16,39.96,30.42,229.56,81.48,154.1,0.0,1003.24,58.254,45.292706,14.277227,193.03,NaN,,3.91,12.903226,350.2,19 / 19,56040,2021-12-05 19:37:39:867
-2.5571,-13.3361,1.4007,-0.6559,-9.7833,-0.1665,0.1651,-6.3661,1.0356,0.2233,-0.5239,0.0299,0.0,-10.38,45.3,25.14,283.97,86.04,104.24,0.0,1003.48,54.161,45.29272,14.277226,193.02,NaN,,3.95,12.903226,12.15,19 / 21,56540,2021-12-05 19:37:40:367
-1.5922,-7.1086,-0.0144,-0.4335,-9.7176,-1.2451,-1.2928,-0.1612,1.8005,-0.1023,0.66,-0.1241,0.0,-12.06,44.58,28.02,231.66,82.27,160.8,0.0,1003.33,56.63,45.29272,14.277226,193.02,NaN,,3.95,12.903226,12.15,19 / 21,57040,2021-12-05 19:37:40:867
-0.7662,-9.5125,2.7893,-0.5835,-9.7849,-0.2909,0.1309,3.3827,2.259,-0.1102,-0.7621,0.0048,0.0,-13.02,48.48,19.5,283.97,86.19,116.5,0.0,1003.95,53.262,45.292736,14.277228,193.0,NaN,,4.05,12.903226,4.33,17 / 18,57540,2021-12-05 19:37:41:367
-0.9457,-6.2323,-0.3041,-0.73,-9.7251,-1.0293,-0.2157,3.4928,0.7252,-0.5122,0.7461,0.1209,0.0,-9.6,45.24,22.02,253.29,82.61,144.66,0.0,1003.21,57.586,45.292736,14.277228,193.0,NaN,,4.05,12.903226,4.33,17 / 18,58040,2021-12-05 19:37:41:867
-1.1612,-5.0208,0.9218,-0.5713,-9.7881,-0.1924,-1.1478,3.9892,0.7526,0.3925,0.0277,-0.0789,0.0,-13.38,45.36,14.82,299.25,86.48,108.61,0.0,1003.78,55.471,45.29275,14.277227,192.98,NaN,,4.14,12.903226,13.55,17 / 17,58540,2021-12-05 19:37:42:367
0.5267,-5.4661,1.0463,-0.764,-9.7673,-0.4314,0.9125,3.7433,0.6349,-0.682,0.222,-0.0819,0.0,-10.98,43.2,15.42,288.11,84.87,119.45,0.0,1003.32,54.967,45.29275,14.277227,192.98,NaN,,4.14,12.903226,13.55,17 / 17,59040,2021-12-05 19:37:42:867
-2.2267,-5.7295,0.5315,-0.5872,-9.7762,-0.5008,0.0197,4.1976,0.7737,0.15,0.4297,0.0195,0.0,-18.36,44.52,9.78,299.07,85.49,130.46,0.0,1003.67,54.605,45.292763,14.27723,192.96,NaN,,4.26,12.903226,13.02,17 / 18,59540,2021-12-05 19:37:43:367
-2.095,-9.953,-1.7382,-1.194,-9.6931,-0.8877,1.4885,3.3866,2.2883,-0.8084,0.2324,-0.1173,0.0,-15.72,45.48,11.52,302.98,81.27,126.63,0.0,1003.34,59.539,45.292763,14.27723,192.96,NaN,,4.26,12.903226,13.02,17 / 18,60040,2021-12-05 19:37:43:867
-1.3935,-6.2969,-0.5339,-0.8336,-9.7656,-0.3283,0.3499,1.2205,-1.0293,0.0388,0.2629,-0.0471,0.0,-19.08,46.2,2.04,337.29,84.76,111.49,0.0,1003.5,50.356,45.29278,14.277238,192.94,NaN,,4.23,12.903226,41.76,17 / 19,60540,2021-12-05 19:37:44:367
0.6034,-10.8509,-6.5316,-0.4737,-9.7832,-0.4851,1.077,-1.0677,-6.0465,-0.1872,0.4156,0.3775,0.0,-20.22,45.48,2.04,314.85,86.04,135.68,0.0,1003.43,59.659,45.29278,14.277238,192.94,NaN,,4.23,12.903226,41.76,17 / 19,61040,2021-12-05 19:37:44:867
3.0719,-10.9011,-2.253,-1.3119,-9.717,-0.1708,4.0151,-0.746,-2.901,1.3168,0.6184,-0.0819,0.0,-15.12,45.72,-0.54,357.43,82.25,97.42,0.0,1003.48,53.361,45.292786,14.277249,192.92,NaN,,4.2,12.903226,63.25,20 / 21,61540,2021-12-05 19:37:45:367
2.921,-9.546,-3.0551,-1.1332,-9.611,1.586,-2.111,-7.6542,-3.2189,-0.1114,0.0974,-0.0086,0.0,-14.88,43.32,-4.74,49.06,78.54,35.55,0.0,1003.31,51.824,45.292786,14.277249,192.92,NaN,,4.2,12.903226,63.25,20 / 21,62040,2021-12-05 19:37:45:867
3.522,-9.3784,-4.3696,-1.3846,-9.7007,-0.3856,4.9066,0.3224,-3.984,1.2575,0.4278,-0.0789,0.0,-13.5,43.62,1.62,343.52,81.57,105.56,0.0,1003.36,55.499,45.29279,14.27727,192.89,NaN,,4.17,12.903226,91.14,18 / 20,62540,2021-12-05 19:37:46:367
-0.3496,-15.0839,-6.0623,-1.2969,-9.6446,1.2124,1.2179,-7.1632,-5.206,-0.3209,0.2586,0.2773,0.0,-14.04,42.18,-0.6,31.2,79.57,46.93,0.0,1003.24,51.946,45.29279,14.27727,192.89,NaN,,4.17,12.903226,91.14,18 / 20,63040,2021-12-05 19:37:46:867
-3.4789,-16.5732,-6.6944,-1.0394,-9.7164,-0.8258,-3.1123,-3.773,0.3398,0.5984,1.0405,0.3622,0.0,-17.04,40.98,6.3,310.4,79.92,133.93,0.0,1003.28,52.589,45.292793,14.277289,192.87,NaN,,4.16,12.903226,83.55,19 / 19,63540,2021-12-05 19:37:47:367
-1.7335,-14.2699,0.7207,-1.2679,-9.7243,0.0149,-0.4655,-4.5456,0.7057,0.0309,-0.8452,-0.085,0.0,-17.16,42.0,2.94,345.71,82.9,98.44,0.0,1003.33,53.555,45.292793,14.277289,192.87,NaN,,4.16,12.903226,83.55,19 / 19,64040,2021-12-05 19:37:47:867
-3.0575,-10.973,1.6185,-1.2012,-9.632,-1.3971,-1.3463,0.4835,2.3955,0.2264,0.3967,-0.1027,0.0,-15.24,41.16,8.16,304.38,79.17,139.31,0.0,1003.21,53.163,45.292797,14.277312,192.84,NaN,,4.24,12.903226,82.34,17 / 18,64540,2021-12-05 19:37:48:367
-1.9657,-8.7223,2.9857,-1.3735,-9.7092,0.1213,-0.0966,3.3907,2.3736,-0.3417,-1.1506,-0.22,0.0,-15.24,42.0,3.12,355.45,81.92,84.95,0.0,1003.4,54.259,45.292797,14.277312,192.84,NaN,,4.24,12.903226,82.34,17 / 18,65040,2021-12-05 19:37:48:867
-1.7742,-10.1398,0.0311,-1.2129,-9.701,-0.7679,-0.8773,-2.4859,2.5468,0.2246,0.3081,0.0189,0.0,-15.72,41.1,13.68,290.4,80.28,136.15,0.0,1003.3,59.704,45.2928,14.277339,192.82,NaN,,4.35,12.903226,75.64,17 / 17,65540,2021-12-05 19:37:49:367
-0.17,-5.2626,2.2985,-1.3345,-9.7108,0.2987,0.5013,0.4521,1.4275,-0.0852,-1.2985,0.0109,0.0,-16.26,43.86,8.64,339.42,82.34,87.5,0.0,1003.38,56.321,45.2928,14.277339,192.82,NaN,,4.35,12.903226,75.64,17 / 17,66040,2021-12-05 19:37:49:867
-1.1253,-5.6649,1.257,-1.1792,-9.664,-1.1774,0.0539,3.9991,2.4344,-0.2067,0.547,-0.1192,0.0,-13.32,42.48,18.66,292.61,80.02,118.66,0.0,1003.41,55.682,45.29281,14.277363,192.8,NaN,,4.48,12.903226,57.31,18 / 19,66541,2021-12-05 19:37:50:368
-0.8955,-5.6505,2.1357,-1.5159,-9.6729,0.5544,0.539,6.0432,0.7457,-0.1976,-0.6228,-0.121,0.0,-14.34,43.86,13.92,341.52,80.53,69.91,0.0,1003.99,54.419,45.29281,14.277363,192.8,NaN,,4.48,12.903226,57.31,18 / 19,67040,2021-12-05 19:37:50:867
-0.0814,-4.6832,0.7566,-1.3641,-9.6977,-0.5136,2.3123,5.2467,0.8033,-0.1218,-0.5318,-0.1583,0.0,-6.54,40.02,26.88,276.21,81.45,110.63,0.0,1003.47,53.539,45.292824,14.277387,192.79,NaN,,4.59,12.903226,42.16,20 / 20,67540,2021-12-05 19:37:51:367
-3.328,-4.7862,2.4302,-1.173,-9.7346,0.1769,-3.108,4.1584,0.7928,-0.3368,0.9898,-0.3146,0.0,-11.1,42.72,18.9,317.65,83.05,81.42,0.0,1004.2,56.885,45.292824,14.277387,192.79,NaN,,4.59,12.903226,42.16,20 / 20,68040,2021-12-05 19:37:51:867
-0.6321,-5.1285,0.0838,-1.1135,-9.7337,-0.4316,0.1701,4.4112,0.5082,-0.5842,0.6685,-0.1063,0.0,-7.98,41.1,23.4,320.0,79.77,69.89,0.0,1003.48,56.507,45.29283,14.277399,192.78,NaN,,4.49,12.903226,28.7,19 / 19,68540,2021-12-05 19:37:52:367
-3.2945,-7.6186,0.3376,-1.0299,-9.7483,0.284,-0.0331,3.1305,0.1374,0.4176,-0.2301,-0.1002,0.0,-12.66,42.78,17.58,332.45,81.79,70.51,0.0,1004.19,55.662,45.29283,14.277399,192.78,NaN,,4.49,12.903226,28.7,19 / 19,69040,2021-12-05 19:37:52:867
-1.2738,-6.7159,1.5012,-1.2145,-9.7179,-0.5077,1.5257,2.1376,3.3066,-1.3503,-1.1427,-0.2676,0.0,-9.66,43.14,20.52,350.31,79.29,38.31,0.0,1003.37,54.919,45.29284,14.277408,192.77,NaN,,4.39,12.903226,28.55,20 / 21,69540,2021-12-05 19:37:53:367
-1.7023,-8.957,-1.0511,-1.0822,-9.7401,-0.3592,-0.6202,0.7831,-0.6919,0.015,0.1511,-0.0227,0.0,-11.4,42.0,21.42,290.36,83.32,108.36,0.0,1003.89,58.336,45.29284,14.277408,192.77,NaN,,4.39,12.903226,28.55,20 / 21,70040,2021-12-05 19:37:53:867
-0.407,-8.4326,-0.6177,-1.342,-9.7042,0.4455,-0.6213,-2.8802,-6.4025,-1.3979,0.0772,0.4581,0.0,-8.34,42.72,20.88,319.33,81.71,71.64,0.0,1003.38,54.84,45.292847,14.27741,192.76,NaN,,4.25,12.903226,30.1,20 / 20,70541,2021-12-05 19:37:54:368
0.4908,-11.8229,-2.5044,-1.711,-9.6561,-0.0522,4.8139,0.7757,-2.8808,1.26,0.0919,-0.2694,0.0,-10.74,43.26,19.8,311.1,79.95,91.75,0.0,1003.87,54.891,45.292847,14.27741,192.76,NaN,,4.25,12.903226,30.1,20 / 20,71040,2021-12-05 19:37:54:867
0.079,-9.0671,-3.3089,-1.3356,-9.7086,-0.3605,-0.7809,-3.0984,-1.8518,-1.0729,-1.6112,0.2193,0.0,-6.54,43.44,20.52,335.67,78.43,51.59,0.0,1003.37,55.602,45.292866,14.277415,192.76,NaN,,4.14,12.903226,342.24,20 / 21,71540,2021-12-05 19:37:55:367
4.8556,-11.5643,-5.3895,-1.4853,-9.6935,0.0155,6.3409,-1.8709,-5.405,1.1354,0.6349,-0.2529,0.0,-8.1,40.08,26.46,274.13,81.57,115.48,0.0,1003.76,52.325,45.292866,14.277415,192.76,NaN,,4.14,12.903226,342.24,20 / 21,72040,2021-12-05 19:37:55:867
0.1317,-9.85,-3.68,-1.0142,-9.6871,1.1405,1.1458,-0.1629,-4.8205,-0.3668,0.2751,-0.9396,0.0,-4.62,43.02,22.74,313.09,82.08,69.56,0.0,1003.38,55.856,45.292873,14.277411,192.75,NaN,,2.93,12.903226,354.56,20 / 20,72540,2021-12-05 19:37:56:367
5.842,-11.4901,-2.4517,-1.7322,-9.6473,-0.3141,-0.7316,-5.9897,-5.1161,0.2044,-0.2038,0.7257,0.0,-7.02,40.98,25.8,289.63,79.66,100.28,0.0,1003.52,57.002,45.292873,14.277411,192.75,NaN,,2.93,12.903226,354.56,20 / 20,73040,2021-12-05 19:37:56:867
-1.8987,-10.0823,-7.8341,-1.4413,-9.6339,1.1315,0.4094,-8.6535,-4.7876,1.6198,-0.8837,0.3567,0.0,-3.78,43.68,19.86,330.51,79.23,51.87,0.0,1003.45,53.625,45.292873,14.277411,192.75,NaN,,2.93,12.903226,354.56,19 / 20,73540,2021-12-05 19:37:57:367
0.4549,-13.0416,-2.5188,-1.3044,-9.7186,-0.1343,-3.0053,-3.4523,2.8781,0.3192,0.8671,0.4337,0.0,-9.3,40.08,25.8,293.39,82.32,95.88,0.0,1003.64,59.746,45.292873,14.277411,192.75,NaN,,2.93,12.903226,354.56,19 / 20,74040,2021-12-05 19:37:57:867
-2.3488,-16.0225,-2.1453,-1.526,-9.6107,1.2153,3.3145,-1.1803,-3.7412,-0.4523,1.4865,-0.7667,0.0,-3.72,43.38,22.26,321.74,79.76,60.41,0.0,1003.53,54.627,45.29289,14.277409,192.74,NaN,,3.92,12.903226,349.99,18 / 19,74540,2021-12-05 19:37:58:367
-4.5324,-13.1565,1.9513,-1.4477,-9.6927,-0.3553,-1.8732,-6.3083,-5.8842,0.4707,0.5091,0.5766,0.0,-7.74,38.46,28.44,248.22,80.89,139.16,0.0,1003.62,56.215,45.29289,14.277409,192.74,NaN,,3.92,12.903226,349.99,18 / 19,75040,2021-12-05 19:37:58:867
-1.3911,-12.5795,-1.3025,-1.3691,-9.6845,0.7114,-2.0236,-3.6732,9.0645,0.0651,-0.585,0.0219,0.0,-6.18,42.78,22.74,305.19,82.73,80.05,0.0,1003.73,53.995,45.292904,14.277407,192.74,NaN,,5.33,12.903226,9.17,20 / 20,75540,2021-12-05 19:37:59:367
-1.5754,-10.02,1.2426,-0.8037,-9.7329,-0.8912,-0.7717,-0.2871,2.1339,0.0443,0.4132,0.0329,0.0,-7.26,39.12,27.84,244.91,82.97,137.96,0.0,1003.33,51.325,45.292904,14.277407,192.74,NaN,,5.33,12.903226,9.17,20 / 20,76040,2021-12-05 19:37:59:867
-2.4709,-11.9474,0.7279,-1.2617,-9.7087,0.5644,-0.0695,1.8843,3.0198,-0.0821,-1.0529,0.1221,0.0,-4.86,43.08,21.66,317.19,81.9,65.9,0.0,1003.56,52.013,45.292923,14.277411,192.72,NaN,,5.83,12.903226,20.33,19 / 19,76540,2021-12-05 19:38:00:367
-2.0687,-7.19,-0.0982,-0.7915,-9.7134,-1.0929,-0.8103,3.6965,1.7345,-0.2165,1.2507,-0.0062,0.0,-7.44,39.06,28.26,239.47,82.09,144.09,0.0,1003.42,56.205,45.292923,14.277411,192.72,NaN,,5.83,12.903226,20.33,19 / 19,77041,2021-12-05 19:38:00:868
-2.1788,-6.2922,2.1046,-0.975,-9.7552,0.236,-2.0562,4.3202,0.1854,0.9503,-0.2765,0.1893,0.0,-10.08,43.8,18.36,320.52,84.13,76.39,0.0,1003.69,52.052,45.29294,14.27742,192.7,NaN,,5.67,12.903226,15.45,18 / 18,77540,2021-12-05 19:38:01:367
-1.02,-6.1341,0.8691,-1.0075,-9.6807,-1.1999,0.0306,3.9823,1.1592,-0.2421,1.1633,-0.0569,0.0,-3.3,39.9,27.18,259.45,81.09,120.14,0.0,1003.37,58.721,45.29294,14.27742,192.7,NaN,,5.67,12.903226,15.45,18 / 18,78040,2021-12-05 19:38:01:867
-6.5292,-6.2084,3.4478,-1.3478,-9.7082,0.3245,-0.2061,5.4224,1.2438,0.2844,-0.1537,-0.0361,0.0,-10.26,43.5,18.54,320.74,83.36,75.47,0.0,1003.96,52.5,45.292953,14.277423,192.68,NaN,,5.63,12.903226,3.19,18 / 20,78540,2021-12-05 19:38:02:367
-0.5674,-5.6481,1.0535,-1.0278,-9.6605,-1.3374,0.4604,4.0124,2.3909,-0.9361,0.0448,-0.1363,0.0,-6.24,41.22,25.08,283.75,82.54,101.32,0.0,1003.45,57.473,45.292953,14.277423,192.68,NaN,,5.63,12.903226,3.19,18 / 20,79040,2021-12-05 19:38:02:867
-3.5459,-5.7894,0.3735,-0.8863,-9.765,-0.1717,-1.745,2.4696,-0.8267,-0.029,-0.0364,-0.231,0.0,-9.9,42.12,21.06,293.23,84.72,100.97,0.0,1003.84,54.779,45.292976,14.277426,192.66,NaN,,5.5,12.903226,356.49,18 / 18,79540,2021-12-05 19:38:03:367
-0.1508,-7.5946,0.6393,-1.1455,-9.7356,-0.2765,-1.2775,-2.8894,-2.0077,-0.9159,-0.8611,0.2351,0.0,-4.56,41.28,24.66,278.77,83.1,103.57,0.0,1003.47,55.284,45.292976,14.277426,192.66,NaN,,5.5,12.903226,356.49,18 / 18,80040,2021-12-05 19:38:03:867
-4.5156,-7.6497,-0.5196,-1.567,-9.6766,0.2796,7.7275,-2.618,-4.2708,1.1738,0.911,-0.1748,0.0,-8.52,43.44,19.38,318.0,80.66,79.88,0.0,1003.71,53.377,45.292988,14.277428,192.63,NaN,,5.5,12.903226,1.04,20 / 21,80540,2021-12-05 19:38:04:367
-0.4094,-11.4997,-6.9434,-1.4039,-9.6898,-0.5542,-0.2385,-0.256,0.0107,-0.4327,-1.2355,-0.0062,0.0,-5.04,42.36,22.32,332.08,76.58,51.81,0.0,1003.54,53.939,45.292988,14.277428,192.63,NaN,,5.5,12.903226,1.04,20 / 21,81040,2021-12-05 19:38:04:867
4.2738,-11.0879,-4.3193,-1.3401,-9.7133,-0.163,5.6138,-1.3746,-4.1563,0.6277,-0.2771,-0.1357,0.0,-7.14,39.6,26.28,275.32,80.39,114.18,0.0,1003.69,51.968,45.293007,14.277427,192.6,NaN,,5.35,12.903226,349.84,20 / 20,81540,2021-12-05 19:38:05:367
2.8205,-9.7782,-3.2011,-1.1265,-9.728,0.5171,2.4242,1.1517,-3.3519,-1.4449,0.9807,-0.7905,0.0,-2.82,42.12,22.8,305.04,82.54,73.32,0.0,1003.48,56.872,45.293007,14.277427,192.6,NaN,,5.35,12.903226,349.84,20 / 20,82040,2021-12-05 19:38:05:867
4.4031,-9.0671,-5.2459,-1.4837,-9.6574,-0.8392,-1.7295,-8.0172,-4.4976,0.1525,-0.1775,0.6175,0.0,-6.9,38.76,27.3,269.34,79.99,119.49,0.0,1003.48,51.856,45.29301,14.277426,192.57,NaN,,5.16,12.903226,4.25,19 / 19,82540,2021-12-05 19:38:06:367
-0.0096,-20.7033,-7.0559,-1.0883,-9.7452,0.1315,-2.1583,-2.2358,4.5709,0.3932,-0.5221,0.1435,0.0,-1.86,41.94,24.36,292.0,83.58,83.11,0.0,1003.49,56.57,45.29301,14.277426,192.57,NaN,,5.16,12.903226,4.25,19 / 19,83040,2021-12-05 19:38:06:867
-2.9881,-16.3888,-6.5555,-0.9452,-9.6628,-1.3805,-1.7675,-2.9837,2.6136,0.1751,0.2696,0.0262,0.0,-5.4,37.98,28.98,235.09,80.18,145.6,0.0,1003.55,56.293,45.293022,14.277428,192.54,NaN,,4.98,12.903226,4.11,19 / 19,83540,2021-12-05 19:38:07:367
-2.2339,-13.6162,1.8532,-0.9363,-9.7223,0.8781,-0.201,-4.9307,-4.9268,1.1738,-0.2832,0.5314,0.0,-5.16,42.06,23.28,278.04,85.43,102.33,0.0,1003.47,53.014,45.293022,14.277428,192.54,NaN,,4.98,12.903226,4.11,19 / 19,84040,2021-12-05 19:38:07:867
-1.6329,-10.5348,0.2945,-0.8393,-9.7013,-1.1617,-2.2613,-3.4217,2.1888,0.252,0.4987,0.1643,0.0,-4.68,38.28,26.16,225.97,80.54,155.14,0.0,1003.41,57.433,45.293037,14.277434,192.51,NaN,,4.87,12.903226,9.28,20 / 22,84540,2021-12-05 19:38:08:367
-1.0176,-10.3145,3.4023,-0.5862,-9.7854,-0.2691,-0.4313,-0.5291,3.6714,0.0676,-0.8275,0.1038,0.0,-7.14,40.68,18.3,258.22,86.35,130.68,0.0,1003.67,55.643,45.293037,14.277434,192.51,NaN,,4.87,12.903226,9.28,20 / 22,85040,2021-12-05 19:38:08:867
-1.3169,-10.4726,1.348,-0.4776,-9.6991,-1.3675,-0.9781,2.5833,1.5542,0.0297,1.0436,0.2003,0.0,-11.58,39.66,23.7,236.81,81.51,160.75,0.0,1003.5,56.62,45.293053,14.277439,192.48,NaN,,4.79,12.903226,348.07,19 / 19,85540,2021-12-05 19:38:09:367
0.4956,-6.5412,0.589,-0.5586,-9.7561,-0.8224,-0.4302,4.3474,1.8926,0.2191,-0.2148,-0.1992,0.0,-16.08,41.22,17.88,265.8,84.18,145.81,0.0,1003.6,54.845,45.293053,14.277439,192.48,NaN,,4.79,12.903226,348.07,19 / 19,86040,2021-12-05 19:38:09:867
-1.0942,-6.6178,0.17,-0.7533,-9.7008,-1.223,0.7126,2.9562,0.5335,0.1433,-0.3693,-0.0098,0.0,-13.32,40.5,21.9,255.66,81.58,148.37,0.0,1003.47,54.93,45.29306,14.277437,192.45,NaN,,4.66,12.903226,13.05,17 / 19,86540,2021-12-05 19:38:10:367
-0.7638,-5.5451,-1.6305,-0.333,-9.749,-1.0079,-0.5386,4.3475,0.541,0.0792,-0.1366,-0.2731,0.0,-15.72,41.28,19.26,265.71,83.89,144.56,0.0,1003.69,54.039,45.29306,14.277437,192.45,NaN,,4.66,12.903226,13.05,17 / 19,87040,2021-12-05 19:38:10:867
-2.684,-9.4718,-2.514,-0.9161,-9.6429,-1.5312,0.5666,3.7339,2.6039,-0.39,-0.1635,-0.1992,0.0,-16.02,40.44,19.2,245.69,86.46,159.65,0.0,1003.46,59.869,45.29307,14.277445,192.42,NaN,,4.54,12.903226,48.96,20 / 20,87540,2021-12-05 19:38:11:367
1.767,-9.704,-1.7957,-0.8386,-9.755,-0.5547,2.6056,0.051,-1.241,-0.0583,-0.6723,0.0183,0.0,-15.42,40.38,19.38,283.49,81.29,128.89,0.0,1003.83,49.405,45.29307,14.277445,192.42,NaN,,4.54,12.903226,48.96,20 / 20,88040,2021-12-05 19:38:11:867
-2.1285,-12.0408,-5.3416,-0.7699,-9.7593,-0.5775,2.6278,1.1184,-1.9341,-1.3044,1.0473,-0.3922,0.0,-13.14,39.3,22.56,270.97,84.37,126.87,0.0,1003.46,56.196,45.29308,14.27746,192.39,NaN,,4.5,12.903226,40.54,22 / 22,88540,2021-12-05 19:38:12:367
1.1612,-9.0815,-3.103,-1.3754,-9.6446,-1.1226,-1.1985,-3.9716,-3.8335,0.3797,-0.2533,0.3659,0.0,-12.66,40.02,23.28,276.23,79.57,129.22,0.0,1003.68,54.336,45.29308,14.27746,192.39,NaN,,4.5,12.903226,40.54,22 / 22,89040,2021-12-05 19:38:12:867
-2.751,-16.9634,-7.1469,-1.1683,-9.7368,-0.0055,0.0406,-3.7597,6.7741,0.3492,-0.9662,0.047,0.0,-6.72,41.94,22.14,298.28,83.16,90.27,0.0,1003.5,52.783,45.293095,14.277475,192.37,NaN,,4.51,12.903226,27.94,20 / 20,89540,2021-12-05 19:38:13:367
-3.0192,-13.6354,1.7358,-1.3991,-9.6393,-1.1384,-3.4182,-7.1948,-4.2487,0.3614,-0.0627,0.499,0.0,-11.16,38.04,27.3,253.96,78.22,143.66,0.0,1003.58,62.673,45.293095,14.277475,192.37,NaN,,4.51,12.903226,27.94,20 / 20,90041,2021-12-05 19:38:13:868
-2.526,-11.3273,2.9593,-1.2012,-9.732,-0.1281,-0.8579,-4.6409,5.441,0.0279,-0.6509,-0.1974,0.0,-10.38,41.7,23.28,261.22,82.31,135.27,0.0,1003.57,49.531,45.293114,14.277485,192.34,NaN,,4.55,12.903226,15.12,21 / 22,90541,2021-12-05 19:38:14:368
-2.49,-9.024,-0.2634,-1.0384,-9.6423,-1.4554,-1.4516,0.6182,1.1921,0.0999,0.7345,-0.0172,0.0,-9.78,38.28,27.48,246.63,78.8,147.94,0.0,1003.5,60.85,45.293114,14.277485,192.34,NaN,,4.55,12.903226,15.12,21 / 22,91040,2021-12-05 19:38:14:867
-0.2155,-10.2954,1.7526,-1.0648,-9.7417,-0.3678,1.1366,4.0338,2.2138,-0.2342,-1.1238,-0.2346,0.0,-10.32,42.24,21.84,286.39,83.4,109.06,0.0,1003.9,53.126,45.29313,14.277495,192.32,NaN,,4.63,12.903226,16.68,21 / 21,91540,2021-12-05 19:38:15:367
-1.2474,-5.605,0.5627,-1.1707,-9.6388,-1.376,1.6041,4.4624,1.1892,-0.6472,0.0509,-0.1876,0.0,-3.84,39.06,29.28,241.26,79.38,139.61,0.0,1003.53,56.895,45.29313,14.277495,192.32,NaN,,4.63,12.903226,16.68,21 / 21,92040,2021-12-05 19:38:15:867
0.2538,-5.2459,0.9457,-0.8147,-9.7452,-0.733,-2.202,3.8194,0.9078,-0.1578,0.4596,0.0054,0.0,-6.24,40.26,25.32,251.15,83.58,131.98,0.0,1004.07,52.106,45.293144,14.2775,192.3,NaN,,4.68,12.903226,11.87,19 / 19,92540,2021-12-05 19:38:16:367
0.5722,-5.8492,1.5299,-0.9615,-9.6453,-1.488,-0.0992,4.4712,1.9023,-0.6435,0.3564,-0.0581,0.0,-2.76,39.18,27.6,250.26,81.33,127.51,0.0,1003.43,56.112,45.293144,14.2775,192.3,NaN,,4.68,12.903226,11.87,19 / 19,93040,2021-12-05 19:38:16:867
-3.1796,-5.6409,0.0431,-0.6606,-9.7538,-0.773,-2.519,4.1129,0.8161,-0.3387,0.426,-0.0691,0.0,-5.88,40.8,25.56,274.86,83.22,108.59,0.0,1003.88,52.315,45.293156,14.277505,192.28,NaN,,4.76,12.903226,3.75,19 / 20,93541,2021-12-05 19:38:17:368
-2.7199,-11.0376,-3.6201,-1.1461,-9.6944,-0.9355,-1.229,0.9864,0.1334,-0.1719,-1.3418,0.2125,0.0,-5.1,40.32,25.38,312.51,83.86,65.76,0.0,1003.79,54.591,45.293156,14.277505,192.28,NaN,,4.76,12.903226,3.75,19 / 20,94040,2021-12-05 19:38:17:867
2.3895,-10.5109,-2.0591,-1.2903,-9.7212,-0.0583,6.2513,-1.6995,-5.3838,0.9301,0.4303,-0.2322,0.0,-6.0,41.34,23.76,292.95,82.43,92.59,0.0,1003.85,51.507,45.29317,14.277508,192.26,NaN,,4.79,12.903226,3.63,19 / 19,94540,2021-12-05 19:38:18:367
3.6441,-9.4478,-2.0758,-0.9227,-9.7219,0.8967,4.5668,0.2741,-2.9725,-2.2824,2.3093,-0.7978,0.0,-5.1,41.16,25.32,331.14,82.46,45.82,0.0,1003.52,53.681,45.29317,14.277508,192.26,NaN,,4.79,12.903226,3.63,19 / 19,95040,2021-12-05 19:38:18:867
3.1509,-9.4167,-3.8763,-0.9549,-9.7316,-0.7438,-1.1784,-4.3132,-1.3823,0.5727,0.5787,0.1649,0.0,-5.94,39.78,27.3,254.71,82.91,127.91,0.0,1003.63,52.97,45.293186,14.277512,192.24,NaN,,4.82,12.903226,8.0,20 / 20,95540,2021-12-05 19:38:19:367
-0.3759,-13.0201,-2.5786,-1.1218,-9.6977,0.9311,1.22,3.1565,-8.7125,-1.1963,0.5518,-0.424,0.0,-1.74,40.56,25.08,292.34,85.46,79.07,0.0,1003.45,55.745,45.293186,14.277512,192.24,NaN,,4.82,12.903226,8.0,20 / 20,96041,2021-12-05 19:38:19:868
-2.095,-15.3641,-4.6688,-1.0099,-9.7133,-0.8955,-1.0851,-5.6508,-3.7733,0.2355,0.6203,0.3982,0.0,-4.68,35.82,30.06,218.76,80.64,158.04,0.0,1003.38,54.411,45.2932,14.277512,192.23,NaN,,4.82,12.903226,0.24,20 / 21,96540,2021-12-05 19:38:20:367
-2.2434,-16.1829,2.1309,-0.9321,-9.7579,-0.2901,-1.3113,-6.425,2.421,0.4542,-0.7188,0.2364,0.0,-7.56,37.44,27.06,234.6,84.04,148.46,0.0,1003.52,53.674,45.2932,14.277512,192.23,NaN,,4.82,12.903226,0.24,20 / 21,97040,2021-12-05 19:38:20:867
-2.1165,-13.0057,1.1469,-0.9384,-9.6495,-1.4751,-0.5125,-0.0042,2.2581,0.0505,1.0289,0.2015,0.0,-9.9,35.82,28.32,243.8,79.73,147.54,0.0,1003.43,57.609,45.293217,14.277515,192.21,NaN,,4.86,12.903226,358.82,20 / 20,97540,2021-12-05 19:38:21:367
-1.5252,-10.3361,1.7382,-1.3484,-9.7133,-0.0549,0.6182,3.6965,1.2855,0.1439,-0.8599,-0.2084,0.0,-10.98,40.8,19.2,309.05,82.09,92.33,0.0,1003.58,52.653,45.293217,14.277515,192.21,NaN,,4.86,12.903226,358.82,20 / 20,98040,2021-12-05 19:38:21:867
-0.838,-5.3225,0.9673,-0.8979,-9.5981,-1.8001,-0.3184,4.1823,3.0212,-0.5231,0.3826,-0.1118,0.0,-7.68,37.8,28.02,236.05,78.16,153.49,0.0,1003.48,59.834,45.293232,14.277517,192.19,NaN,,4.93,12.903226,4.88,21 / 21,98540,2021-12-05 19:38:22:367
0.6872,-6.2203,-0.6752,-0.6666,-9.779,-0.3114,1.3538,3.5587,-0.3638,0.0388,-1.4457,-0.4277,0.0,-7.44,40.02,24.24,266.02,83.98,119.94,0.0,1003.68,51.345,45.293232,14.277517,192.19,NaN,,4.93,12.903226,4.88,21 / 21,99040,2021-12-05 19:38:22:867
0.4908,-5.9977,0.8164,-1.1961,-9.6364,-1.3709,1.0573,3.5286,0.9159,-0.9789,-0.4445,-0.146,0.0,2.82,40.44,26.64,252.9,84.32,108.88,0.0,1003.54,57.823,45.293247,14.277526,192.18,NaN,,5.0,12.903226,3.57,20 / 20,99540,2021-12-05 19:38:23:367
-1.0319,-8.119,-1.8125,-0.9379,-9.7354,-0.7166,-0.4652,2.2556,-1.2635,0.0608,0.2043,0.0476,0.0,4.68,38.7,28.62,232.19,81.97,126.77,0.0,1003.96,53.644,45.293247,14.277526,192.18,NaN,,5.0,12.903226,3.57,20 / 20,100041,2021-12-05 19:38:23:868
-2.9114,-10.6449,-2.8947,-0.8862,-9.75,-0.5684,-0.3756,-1.2589,-6.2457,-0.2403,-0.6992,0.4966,0.0,11.64,39.12,26.1,217.87,83.84,122.67,0.0,1003.48,51.864,45.29326,14.27753,192.17,NaN,,5.06,12.903226,346.73,21 / 21,100540,2021-12-05 19:38:24:367
-2.9354,-11.198,-6.2706,-1.0987,-9.7272,-0.5867,-1.8367,-1.4708,-5.6839,0.8495,-0.4414,-0.2029,0.0,9.84,39.48,27.12,229.34,82.7,118.1,0.0,1003.78,52.988,45.29326,14.27753,192.17,NaN,,5.06,12.903226,346.73,21 / 21,101040,2021-12-05 19:38:24:867
0.6848,-11.9786,-7.1613,-0.9487,-9.7538,0.3655,-2.2261,-12.3143,-2.9489,1.566,-1.7902,0.2742,0.0,15.6,41.4,19.38,260.79,84.05,68.93,0.0,1003.48,55.799,45.29327,14.277533,192.15,NaN,,5.12,12.903226,328.0,20 / 20,101540,2021-12-05 19:38:25:367
-2.842,-14.0903,2.4565,-1.134,-9.6931,-0.963,-1.72,-4.7156,-4.587,0.5379,-0.3528,0.1362,0.0,11.1,36.72,28.32,190.59,79.32,150.55,0.0,1003.6,53.371,45.29327,14.277533,192.15,NaN,,5.12,12.903226,328.0,20 / 20,102040,2021-12-05 19:38:25:867
-2.186,-12.1845,6.1389,-0.4613,-9.7949,-0.1318,-1.7247,-2.3896,6.2708,0.4341,-0.3657,0.1582,0.0,13.98,40.32,23.34,176.82,84.92,151.42,0.0,1003.47,54.839,45.29329,14.277523,192.14,NaN,,5.18,12.903226,314.39,20 / 20,102540,2021-12-05 19:38:26:367
-1.8747,-9.6824,0.589,-0.7659,-9.655,-1.5378,-0.551,-1.0139,1.4875,-0.2513,0.5463,-0.1167,0.0,16.44,37.44,26.22,172.25,79.85,154.37,0.0,1003.45,57.252,45.29329,14.277523,192.14,NaN,,5.18,12.903226,314.39,20 / 20,103040,2021-12-05 19:38:26:867
-0.7901,-8.04,2.1381,-0.5354,-9.7787,-0.5114,-0.0632,3.9318,0.9735,-0.1071,-0.4677,-0.0709,0.0,12.06,40.44,24.36,202.25,85.67,133.69,0.0,1003.8,54.349,45.293297,14.277512,192.13,NaN,,5.24,12.903226,314.21,21 / 21,103540,2021-12-05 19:38:27:367
-0.6512,-5.4613,0.1341,-0.7625,-9.6844,-1.3418,0.1112,4.2231,1.4759,-0.6288,0.4468,-0.0214,0.0,15.3,37.8,26.52,180.7,80.95,150.39,0.0,1003.4,56.174,45.293297,14.277512,192.13,NaN,,5.24,12.903226,314.21,21 / 21,104040,2021-12-05 19:38:27:867
0.0551,-5.502,0.5555,-0.4651,-9.7661,-0.7596,-1.1773,2.9807,-0.0879,-0.0833,0.6447,-0.2328,0.0,16.44,38.7,22.02,174.75,84.79,148.52,0.0,1004.01,57.323,45.29331,14.2775,192.12,NaN,,5.29,12.903226,326.47,21 / 21,104540,2021-12-05 19:38:28:367
-1.6449,-8.3081,-0.9481,-0.8055,-9.6663,-1.4439,0.341,2.9503,2.8397,-0.7486,-0.147,-0.0617,0.0,19.14,38.4,20.7,156.59,85.33,158.71,0.0,1003.43,56.221,45.29331,14.2775,192.12,NaN,,5.29,12.903226,326.47,21 / 21,105040,2021-12-05 19:38:28:867
-0.2083,-8.3967,-0.4765,-0.4278,-9.7257,-1.1823,0.2195,1.329,0.7059,0.1537,-0.1366,0.0775,0.0,15.84,37.86,23.52,177.73,81.29,148.1,0.0,1003.56,54.94,45.29332,14.277497,192.12,NaN,,5.33,12.903226,326.27,21 / 21,105540,2021-12-05 19:38:29:367
3.7375,-7.0464,-1.9274,-0.6441,-9.7692,-0.5641,2.2482,2.7683,-3.1351,-1.6135,1.1731,-0.5651,0.0,18.24,41.22,16.26,258.98,86.63,58.31,0.0,1003.46,52.841,45.29332,14.277497,192.12,NaN,,5.33,12.903226,326.27,21 / 21,106040,2021-12-05 19:38:29:867
-1.1157,-10.2547,-4.008,-0.9408,-9.724,-0.8539,-2.6746,-7.1126,-2.9218,0.5404,0.4175,0.182,0.0,15.0,38.64,25.86,201.49,82.56,132.23,0.0,1003.61,50.265,45.29333,14.277491,192.11,NaN,,5.42,12.903226,321.68,20 / 20,106540,2021-12-05 19:38:30:367
-2.095,-15.9531,2.5499,-0.5431,-9.7883,-0.2536,-1.5518,-6.1647,2.8035,-0.1982,-0.4915,-0.3525,0.0,15.96,39.84,21.78,211.7,86.5,115.03,0.0,1003.49,55.448,45.29333,14.277491,192.11,NaN,,5.42,12.903226,321.68,20 / 20,107041,2021-12-05 19:38:30:868
-1.9681,-14.562,1.1828,-0.7852,-9.6403,-1.618,-1.0441,0.1207,0.9931,-0.1884,0.7235,-0.085,0.0,16.38,36.66,27.42,173.79,79.43,154.11,0.0,1003.5,57.274,45.293343,14.27748,192.11,NaN,,5.46,12.903226,313.41,20 / 21,107540,2021-12-05 19:38:31:367
0.2682,-8.4398,1.4845,-0.3225,-9.7979,-0.2578,-1.6576,-4.381,2.621,0.5361,-1.5624,-0.2041,0.0,13.86,41.16,21.6,198.54,85.62,131.23,0.0,1003.47,54.423,45.293343,14.27748,192.11,NaN,,5.46,12.903226,313.41,20 / 21,108040,2021-12-05 19:38:31:867
-0.4046,-5.4949,-0.4501,-0.836,-9.624,-1.6878,-0.816,2.1731,1.4867,-0.5867,0.0161,-0.0874,0.0,20.28,39.0,22.56,160.22,78.93,153.65,0.0,1003.51,58.53,45.293358,14.277467,192.11,NaN,,5.45,12.903226,292.55,19 / 19,108540,2021-12-05 19:38:32:367
-1.099,-5.277,-0.6249,-0.4477,-9.7703,-0.7152,-0.6513,4.4933,0.0903,0.0321,0.1963,-0.0202,0.0,16.86,42.18,20.7,171.95,85.06,147.95,0.0,1003.87,55.687,45.293358,14.277467,192.11,NaN,,5.45,12.903226,292.55,19 / 19,109040,2021-12-05 19:38:32:867
0.6249,-5.751,0.5603,-0.9087,-9.7332,-0.7805,-0.3172,2.378,1.3168,-0.2061,-0.2411,-0.0141,0.0,22.74,41.34,18.3,176.82,82.98,130.66,0.0,1003.5,53.544,45.293365,14.277454,192.12,NaN,,5.44,12.903226,295.51,20 / 20,109540,2021-12-05 19:38:33:367
-0.9888,-8.107,0.4525,-0.6166,-9.7572,-0.7658,2.2567,0.4124,0.4593,0.128,-0.7395,0.1209,0.0,21.9,40.8,21.48,171.29,84.25,141.16,0.0,1003.81,54.207,45.293365,14.277454,192.12,NaN,,5.44,12.903226,295.51,20 / 20,110040,2021-12-05 19:38:33:867
-2.1213,-11.5907,-3.2227,-0.2855,-9.8004,0.2026,4.2361,2.5792,-3.1643,-1.0925,1.7864,-0.3727,0.0,22.86,42.84,14.4,249.76,87.95,54.64,0.0,1003.48,54.748,45.293377,14.277439,192.13,NaN,,5.4,12.903226,278.03,20 / 20,110541,2021-12-05 19:38:34:368
-0.5722,-11.9187,-3.9841,-0.9129,-9.7564,-0.3876,6.3312,-1.0155,-5.227,0.7963,0.266,-0.0709,0.0,20.1,40.74,21.6,208.69,84.2,113.0,0.0,1003.64,52.576,45.293377,14.277439,192.13,NaN,,5.4,12.903226,278.03,20 / 20,111040,2021-12-05 19:38:34:867
1.0008,-7.7886,-1.9849,-0.2344,-9.7996,0.2869,1.2352,2.011,-2.2718,-1.5103,0.7094,-0.7093,0.0,20.1,42.72,16.38,273.05,87.84,39.25,0.0,1003.46,53.979,45.293373,14.277424,192.14,NaN,,5.34,12.903226,280.2,20 / 20,111540,2021-12-05 19:38:35:367
-1.2881,-14.6721,2.8995,-0.4162,-9.7264,-1.1806,-1.3125,-5.2953,3.2995,0.0859,0.8255,0.0476,0.0,15.78,40.56,24.42,162.46,82.67,160.58,0.0,1003.49,55.845,45.293373,14.277424,192.14,NaN,,5.34,12.903226,280.2,20 / 20,112041,2021-12-05 19:38:35:868
-1.178,-13.621,2.4469,4.0E-4,-9.8,-0.3602,-0.0794,0.12,2.3354,-0.0955,-0.8794,-0.0422,0.0,12.24,45.9,20.16,146.68,87.9,-179.94,0.0,1003.62,52.276,45.293377,14.277413,192.15,NaN,,5.27,12.903226,292.65,19 / 19,112540,2021-12-05 19:38:36:367
-0.9409,-6.2395,0.0359,-0.3403,-9.7025,-1.3839,-0.6007,3.463,1.4198,-0.3723,0.28,0.0568,0.0,19.08,43.74,21.9,145.54,81.64,166.19,0.0,1003.43,57.801,45.293377,14.277413,192.15,NaN,,5.27,12.903226,292.65,19 / 19,113040,2021-12-05 19:38:36:867
0.237,-6.4406,0.5387,-0.0014,-9.761,-0.9453,-1.3705,4.1201,0.033,0.0217,0.3869,-0.0703,0.0,17.88,45.48,19.2,129.09,84.47,179.92,0.0,1003.96,55.572,45.293377,14.277422,192.17,NaN,,5.22,12.903226,295.79,20 / 21,113540,2021-12-05 19:38:37:367
0.4549,-5.8325,1.4461,-0.5139,-9.7003,-1.3457,0.3008,4.2988,1.3816,-0.3613,0.3961,0.0085,0.0,20.04,40.62,18.84,147.36,81.55,159.1,0.0,1003.38,53.163,45.293377,14.277422,192.17,NaN,,5.22,12.903226,295.79,20 / 21,114040,2021-12-05 19:38:37:867
-1.3288,-6.6968,-1.4485,-0.2807,-9.7683,-0.8192,-1.0481,3.0715,-0.6293,0.0059,0.473,-0.1839,0.0,16.2,40.56,20.28,157.01,84.93,161.09,0.0,1003.68,53.067,45.293377,14.277422,192.17,NaN,,5.22,12.903226,295.79,19 / 19,114540,2021-12-05 19:38:38:367
0.3711,-8.9618,-5.5116,-0.2098,-9.7565,-0.9682,-0.7838,-0.163,-3.3343,-0.0424,-0.2081,0.7757,0.0,14.1,41.22,22.02,155.93,84.2,167.77,0.0,1003.51,52.54,45.293377,14.277422,192.17,NaN,,5.22,12.903226,295.79,19 / 19,115040,2021-12-05 19:38:38:867
4.7167,-10.542,-6.1126,-0.7801,-9.7269,-0.9742,1.2853,0.8968,-2.5167,0.5416,-0.0175,-0.2591,0.0,13.26,40.5,24.42,192.77,82.69,141.31,0.0,1003.5,51.71,45.293385,14.277403,192.2,NaN,,5.14,9.677419,291.46,19 / 20,115540,2021-12-05 19:38:39:367
0.0958,-17.4016,-2.7989,-0.3135,-9.801,-0.1137,0.4092,-7.6006,-2.6852,0.982,-1.4041,0.0555,0.0,14.94,42.18,19.56,215.09,88.05,109.94,0.0,1003.43,54.169,45.293385,14.277403,192.2,NaN,,5.14,9.677419,291.46,19 / 20,116041,2021-12-05 19:38:39:868
-3.0072,-16.9515,-3.9458,-0.5864,-9.6286,-1.7652,-0.5102,-1.9166,1.1738,-0.2079,0.2415,-0.1686,0.0,15.12,39.3,26.22,164.29,79.07,161.62,0.0,1003.42,55.696,45.293392,14.277392,192.21,NaN,,5.12,9.677419,304.33,20 / 20,116540,2021-12-05 19:38:40:367
-0.2394,-11.4997,3.3616,-0.212,-9.8003,-0.2805,-2.2925,-6.3658,2.2941,0.2331,-0.6119,-0.1784,0.0,15.12,45.06,20.34,180.22,87.95,142.93,0.0,1003.41,55.208,45.293392,14.277392,192.21,NaN,,5.12,9.677419,304.33,20 / 20,117040,2021-12-05 19:38:40:867
-1.7622,-9.8405,-0.2634,-0.7333,-9.6685,-1.4674,-1.0289,-0.172,1.2041,-0.1853,0.616,-0.0782,0.0,16.08,42.0,24.9,171.91,80.37,153.45,0.0,1003.43,59.675,45.293396,14.277376,192.22,NaN,,5.11,9.677419,302.48,19 / 19,117540,2021-12-05 19:38:41:367
-0.091,-6.5795,0.7422,-0.235,-9.7541,-0.9856,0.6157,3.0358,1.4764,0.095,-0.2368,-0.1412,0.0,12.18,45.06,22.56,162.72,84.07,166.59,0.0,1003.78,54.569,45.293396,14.277376,192.22,NaN,,5.11,9.677419,302.48,19 / 19,118040,2021-12-05 19:38:41:867
-0.5627,-6.5412,0.6105,-0.4599,-9.6714,-1.5566,-0.7228,3.3313,2.4281,-0.0925,0.0112,-0.1088,0.0,13.56,41.94,22.02,157.96,80.47,163.54,0.0,1003.51,52.662,45.293404,14.277359,192.23,NaN,,5.04,9.677419,304.54,20 / 20,118540,2021-12-05 19:38:42:367
4.9322,-9.8453,-2.4422,-0.1125,-9.7549,-0.9999,5.0447,-0.0904,-1.4423,-0.2171,-0.2698,0.2443,0.0,8.58,40.8,24.36,163.03,84.11,173.58,0.0,1003.73,50.056,45.293404,14.277359,192.23,NaN,,5.04,9.677419,304.54,20 / 20,119040,2021-12-05 19:38:42:867
0.0024,-11.5428,-3.6704,-0.2203,-9.7852,-0.6093,2.7224,4.4316,-1.7658,-3.203,0.7577,-0.774,0.0,11.58,41.76,24.24,151.4,86.34,179.24,0.0,1003.44,59.447,45.29341,14.277345,192.24,NaN,,4.95,9.677419,317.5,19 / 19,119540,2021-12-05 19:38:43:367
0.352,-11.6362,-3.2849,-0.212,-9.7241,-1.2522,4.3205,-1.4261,-3.8117,0.8415,0.6313,-0.0538,0.0,6.06,39.9,29.7,177.93,82.56,170.39,0.0,1003.55,54.013,45.29341,14.277345,192.24,NaN,,4.95,9.677419,317.5,19 / 19,120040,2021-12-05 19:38:43:867
2.6912,-18.1701,-1.0439,0.0155,-9.7837,0.6699,2.6757,-8.3864,-1.7138,-1.9068,0.8273,-0.5022,0.0,5.22,42.42,19.92,348.81,86.08,-1.32,0.0,1003.37,54.307,45.29342,14.277338,192.24,NaN,,4.87,9.677419,329.67,20 / 20,120540,2021-12-05 19:38:44:367
-1.6688,-13.1733,1.925,-0.5627,-9.6749,-1.4999,-1.1061,-3.4984,3.4249,0.1054,0.3759,-0.0117,0.0,3.66,36.0,27.6,195.91,80.6,159.44,0.0,1003.45,56.871,45.29342,14.277338,192.24,NaN,,4.87,9.677419,329.67,20 / 20,121040,2021-12-05 19:38:44:867
-1.7358,-14.392,0.7279,-0.2405,-9.7705,-0.8066,0.1567,0.9763,2.3365,-0.1768,-0.6106,-0.0575,0.0,0.66,36.9,24.36,196.42,85.08,163.4,0.0,1003.53,51.879,45.293427,14.277331,192.25,NaN,,4.79,9.677419,329.65,17 / 18,121540,2021-12-05 19:38:45:367
-1.4342,-6.4885,-0.8093,-0.4753,-9.6413,-1.7293,-0.14,3.8758,2.1459,-0.2819,0.1914,-0.0562,0.0,5.52,33.72,28.32,184.27,79.46,164.63,0.0,1003.35,56.242,45.293427,14.277331,192.25,NaN,,4.79,9.677419,329.65,17 / 18,122040,2021-12-05 19:38:45:867
-0.4812,-5.8396,-1.0702,-0.2067,-9.7383,-1.1372,-0.3392,3.4677,0.1771,0.07,0.4126,-0.0361,0.0,3.36,34.74,27.42,184.71,83.23,169.7,0.0,1003.77,54.373,45.29343,14.277322,192.26,NaN,,4.63,9.677419,320.02,18 / 18,122541,2021-12-05 19:38:46:368
0.4717,-6.1748,0.2825,-0.5656,-9.6682,-1.5412,0.9727,3.7424,1.9147,-0.277,-0.2722,-0.0941,0.0,6.96,34.74,27.84,187.81,80.36,159.85,0.0,1003.43,50.909,45.29343,14.277322,192.26,NaN,,4.63,9.677419,320.02,18 / 18,123040,2021-12-05 19:38:46:867
2.3224,-9.4143,-2.2051,-0.3504,-9.7751,-0.7036,0.9154,1.2419,-0.0194,0.1415,-0.7383,0.0439,0.0,4.38,35.58,26.7,200.2,85.4,153.53,0.0,1003.63,52.276,45.29344,14.277313,192.27,NaN,,4.52,9.677419,316.06,17 / 18,123540,2021-12-05 19:38:47:367
0.0024,-10.3409,-6.7447,-0.3027,-9.7895,-0.4946,4.6603,3.1166,-0.7169,-2.2959,1.9904,-0.4423,0.0,11.22,36.96,24.66,188.41,86.61,148.53,0.0,1003.45,58.334,45.29344,14.277313,192.27,NaN,,4.52,9.677419,316.06,17 / 18,124041,2021-12-05 19:38:47:868
-3.3089,-16.9826,-4.2762,-0.6419,-9.6801,-1.4327,-1.8769,-6.0981,-1.8474,0.3034,0.8218,0.207,0.0,10.14,35.1,30.78,187.67,80.79,155.87,0.0,1003.47,56.063,45.29345,14.277305,192.27,NaN,,4.46,9.677419,316.24,17 / 18,124540,2021-12-05 19:38:48:367
-3.5124,-13.384,0.8763,-0.3284,-9.7895,-0.4765,-3.184,-3.5944,1.3528,0.4805,-1.0193,-0.1076,0.0,11.22,38.94,26.22,192.69,86.62,145.43,0.0,1003.37,52.278,45.29345,14.277305,192.27,NaN,,4.46,9.677419,316.24,17 / 18,125040,2021-12-05 19:38:48:867
-1.8101,-11.2315,-0.3089,-0.6326,-9.6628,-1.5492,-1.2948,2.1065,0.6777,-0.2397,0.6471,-0.1106,0.0,13.8,36.48,28.56,175.52,80.18,157.79,0.0,1003.34,58.476,45.293457,14.277295,192.28,NaN,,4.44,9.677419,317.42,18 / 20,125541,2021-12-05 19:38:49:368
-0.3328,-9.3401,1.5682,-0.2715,-9.7464,-1.0511,-0.0613,0.4063,2.6194,-0.1267,-0.632,0.0836,0.0,13.56,38.22,23.4,159.97,83.64,165.52,0.0,1003.43,55.101,45.293457,14.277295,192.28,NaN,,4.44,9.677419,317.42,18 / 20,126040,2021-12-05 19:38:49:867
-0.5004,-5.775,0.2131,-0.639,-9.6439,-1.6603,-0.5917,3.4116,1.1575,-0.2232,0.6985,-0.008,0.0,14.94,36.3,25.2,166.98,79.55,158.95,0.0,1003.39,56.961,45.293465,14.277285,192.28,NaN,,4.43,9.677419,314.3,19 / 19,126540,2021-12-05 19:38:50:367
-1.3456,-6.613,0.4334,-0.0495,-9.7164,-1.3263,-1.399,3.2064,0.6248,0.0645,0.6539,-0.1424,0.0,9.36,37.44,26.4,159.15,82.22,177.86,0.0,1003.82,53.344,45.293465,14.277285,192.28,NaN,,4.43,9.677419,314.3,19 / 19,127041,2021-12-05 19:38:50:868
-0.4477,-10.6904,-5.3368,0.0998,-9.7017,-1.4272,-0.5476,-0.9887,-3.9096,-0.4572,0.3356,0.8692,0.0,8.1,37.2,29.04,156.19,81.61,-176.0,0.0,1003.34,58.065,45.293472,14.277275,192.28,NaN,,4.4,9.677419,312.55,19 / 20,127540,2021-12-05 19:38:51:367
4.6425,-10.7072,-4.5563,-0.4966,-9.7341,-1.0823,0.08,-0.2955,-2.5307,0.7701,0.6575,-0.3788,0.0,6.6,35.58,31.86,194.3,83.03,155.35,0.0,1003.59,51.367,45.293472,14.277275,192.28,NaN,,4.4,9.677419,312.55,19 / 20,128040,2021-12-05 19:38:51:867
2.2075,-17.9475,-7.8652,-0.3228,-9.8001,0.1557,-1.2503,-5.9327,0.201,1.365,-0.9698,0.5045,0.0,5.82,40.14,27.0,286.13,87.91,64.24,0.0,1003.37,53.527,45.29348,14.277267,192.28,NaN,,4.37,9.677419,325.49,18 / 18,128540,2021-12-05 19:38:52:367
-3.3233,-16.8078,-3.7877,-0.8235,-9.665,-1.442,-2.8877,-7.1117,-3.3681,0.0639,0.2171,0.4037,0.0,3.84,36.12,32.52,208.14,80.25,150.27,0.0,1003.61,56.557,45.29348,14.277267,192.28,NaN,,4.37,9.677419,325.49,18 / 18,129040,2021-12-05 19:38:52:867
-1.4677,-15.3138,-0.7015,-0.543,-9.7857,-0.3392,-1.9782,-4.7691,5.2642,0.059,-0.3669,-0.3024,0.0,3.84,39.36,28.02,234.12,86.26,122.0,0.0,1003.48,52.142,45.29349,14.277259,192.28,NaN,,4.35,9.677419,334.59,19 / 21,129540,2021-12-05 19:38:53:367
-1.0367,-10.5037,-0.431,-0.6512,-9.6743,-1.4678,-1.2067,0.655,1.4606,-0.1927,0.3784,-0.1405,0.0,5.16,36.96,30.54,198.51,80.58,156.07,0.0,1003.38,59.912,45.29349,14.277259,192.28,NaN,,4.35,9.677419,334.59,19 / 21,130040,2021-12-05 19:38:53:867
-0.5052,-6.2275,0.4382,-0.4396,-9.7857,-0.4661,-0.0656,3.5582,0.9042,0.4408,-0.701,-0.2175,0.0,1.38,40.74,25.44,225.48,86.25,136.68,0.0,1003.97,56.468,45.293503,14.27725,192.27,NaN,,4.39,9.677419,346.5,18 / 18,130540,2021-12-05 19:38:54:367
-0.7398,-6.2945,0.6919,-0.7542,-9.7397,-0.8602,0.9553,3.5409,2.146,-0.4755,-0.0395,-0.1625,0.0,7.14,40.02,26.88,211.98,83.3,138.76,0.0,1003.3,53.152,45.293503,14.27725,192.27,NaN,,4.39,9.677419,346.5,18 / 18,131041,2021-12-05 19:38:54:868
-2.1094,-8.5595,-0.7255,-0.6662,-9.7823,-0.1822,1.9663,0.2435,-0.6702,0.274,-0.4231,-0.0019,0.0,0.96,40.92,26.28,258.79,85.96,105.3,0.0,1003.66,53.087,45.29352,14.277245,192.27,NaN,,4.45,12.903226,345.24,19 / 19,131540,2021-12-05 19:38:55:367
-1.6664,-10.6354,-2.7007,-0.5894,-9.779,0.4411,4.0204,2.2633,-2.0069,-1.247,1.357,-0.2914,0.0,4.92,42.6,22.8,301.22,85.69,53.19,0.0,1003.37,56.743,45.29352,14.277245,192.27,NaN,,4.45,12.903226,345.24,19 / 19,132040,2021-12-05 19:38:55:867
2.2363,-7.8891,-3.1054,-0.9563,-9.7259,-0.8137,5.0385,1.6261,-4.0539,0.712,0.2592,-0.1943,0.0,2.7,37.98,30.06,231.41,82.64,130.39,0.0,1003.51,52.236,45.293537,14.277238,192.27,NaN,,4.56,12.903226,337.49,19 / 20,132540,2021-12-05 19:38:56:367
4.6832,-7.5994,-2.6265,-0.5041,-9.7593,0.8193,1.7779,-7.477,-6.3812,-0.4114,-0.1244,-0.3482,0.0,4.44,42.3,23.58,324.46,84.37,31.61,0.0,1003.33,55.236,45.293537,14.277238,192.27,NaN,,4.56,12.903226,337.49,19 / 20,133040,2021-12-05 19:38:56:867
-1.0104,-14.5093,0.6081,-0.3374,-9.716,-1.2866,-0.4096,-3.474,3.1278,-0.0448,-0.001,0.1545,0.0,1.32,37.08,31.14,195.46,82.2,165.31,0.0,1003.37,57.457,45.293556,14.277229,192.27,NaN,,4.75,12.903226,344.34,17 / 18,133540,2021-12-05 19:38:57:367
-0.0934,-9.9865,3.079,0.1651,-9.7755,-0.7638,-0.2585,-0.2111,3.8428,-0.065,-0.5269,0.0855,0.0,-1.5,38.7,28.62,168.52,85.43,-167.8,0.0,1003.36,60.193,45.293556,14.277229,192.27,NaN,,4.75,12.903226,344.34,17 / 18,134041,2021-12-05 19:38:57:868
-1.2139,-10.4941,-0.565,-0.2335,-9.6754,-1.582,-0.8391,3.2372,1.4288,-0.2153,0.7937,0.1026,0.0,1.92,37.98,30.42,196.39,82.73,162.51,0.0,1003.4,55.608,45.293575,14.277221,192.26,NaN,,4.89,12.903226,351.83,17 / 19,134540,2021-12-05 19:38:58:367
-0.3663,-5.3249,0.5866,-0.0937,-9.7964,-0.4382,0.7139,2.3119,1.53,-0.4181,-0.3571,0.1087,0.0,-3.42,41.58,26.76,199.81,87.38,167.93,0.0,1003.53,54.52,45.293575,14.277221,192.26,NaN,,4.89,12.903226,351.83,17 / 19,135040,2021-12-05 19:38:58:867
-0.6177,-5.9785,0.6273,-0.5574,-9.6804,-1.4657,-0.0603,3.7019,2.093,-0.346,1.0631,0.1288,0.0,1.5,39.96,31.32,201.77,80.8,159.18,0.0,1003.42,56.434,45.29359,14.277218,192.26,NaN,,4.89,12.903226,342.13,17 / 18,135541,2021-12-05 19:38:59:368
-0.5435,-7.6617,-1.0511,-0.2893,-9.7729,-0.7593,-1.0036,2.6021,-0.4402,0.191,0.6453,-0.1552,0.0,-7.5,43.44,28.62,218.82,85.25,159.14,0.0,1003.68,49.907,45.29359,14.277218,192.26,NaN,,4.89,12.903226,342.13,17 / 18,136040,2021-12-05 19:38:59:867
-1.8939,-9.522,-3.4358,-0.5162,-9.7504,-0.9125,0.3582,0.2212,-4.8888,0.1885,-0.158,0.5357,0.0,-6.24,44.82,29.52,227.67,83.86,150.5,0.0,1003.36,55.195,45.293606,14.277213,192.26,NaN,,4.84,12.903226,344.37,18 / 18,136540,2021-12-05 19:39:00:367
-2.0184,-13.7719,-4.4366,-0.9072,-9.6796,-1.2852,-1.1112,-4.0922,-3.1514,0.4414,0.393,0.0488,0.0,-6.24,44.7,31.08,237.77,80.77,144.78,0.0,1003.7,51.424,45.293606,14.277213,192.26,NaN,,4.84,12.903226,344.37,18 / 18,137040,2021-12-05 19:39:00:867
0.2682,-8.9666,-4.9609,-0.5314,-9.7819,-0.45,-1.8893,-3.8894,7.3934,-0.0839,-0.8764,-0.4295,0.0,-4.08,47.1,23.76,246.5,85.93,130.26,0.0,1003.34,51.048,45.293617,14.277211,192.25,NaN,,4.73,12.903226,4.84,18 / 18,137540,2021-12-05 19:39:01:367
-2.0423,-12.2395,-0.3113,-0.7872,-9.655,-1.5272,-0.3669,-4.4545,1.0292,0.1525,0.5995,0.1685,0.0,0.0,42.42,27.12,217.25,79.91,152.73,0.0,1003.52,57.557,45.293617,14.277211,192.25,NaN,,4.73,12.903226,4.84,18 / 18,138040,2021-12-05 19:39:01:867
-1.4126,-12.3114,3.5651,-0.2485,-9.7934,-0.4442,-1.1641,-2.518,4.0093,0.6558,-1.2783,0.0445,0.0,-0.96,40.38,21.9,214.96,87.02,150.77,0.0,1003.66,59.717,45.293625,14.277213,192.24,NaN,,4.67,12.903226,0.47,18 / 18,138540,2021-12-05 19:39:02:367
-0.1125,-6.6393,0.1077,0.5289,-9.7832,0.4224,-0.8306,2.3203,-1.3083,-0.2012,0.5225,-0.6867,0.0,-8.34,42.0,17.88,67.57,86.04,-51.39,0.0,1003.39,56.714,45.293625,14.277213,192.24,NaN,,4.67,12.903226,0.47,18 / 18,139040,2021-12-05 19:39:02:867
3.5531,-8.277,5.672,-8.0E-4,-9.8048,0.1916,0.0822,3.333,0.0023,0.2685,-1.3534,-0.1668,0.0,-11.94,40.26,16.74,33.78,88.88,0.25,0.0,1003.62,60.927,45.29364,14.277212,192.24,NaN,,4.66,12.903226,358.77,17 / 17,139540,2021-12-05 19:39:03:367
-0.6105,-8.8492,-2.2865,0.2944,-9.6663,-1.6267,-0.905,0.817,-0.6598,-0.4401,-0.497,0.6365,0.0,0.24,34.08,28.38,166.9,80.3,-169.74,0.0,1003.97,60.046,45.29364,14.277212,192.24,NaN,,4.66,12.903226,358.77,17 / 17,140040,2021-12-05 19:39:03:867
1.3073,-9.3113,-5.514,-0.2565,-9.7048,-1.3858,3.2972,0.9202,-5.4019,0.4872,-0.0462,0.0452,0.0,1.02,33.3,31.08,190.31,81.74,169.52,0.0,1003.52,52.582,45.293655,14.277211,192.23,NaN,,4.74,12.903226,344.86,18 / 18,140540,2021-12-05 19:39:04:367
-2.6744,-9.1868,-6.589,-0.0585,-9.7759,-0.7731,-2.9751,-1.0079,-4.3148,-0.7052,-0.4536,0.9731,0.0,5.7,36.66,25.8,170.24,85.47,175.67,0.0,1003.33,55.064,45.293655,14.277211,192.23,NaN,,4.74,12.903226,344.86,18 / 18,141040,2021-12-05 19:39:04:867
-1.6928,-14.8828,-3.4789,-0.7605,-9.6547,-1.542,0.296,-0.7556,-2.7653,0.5251,0.2226,0.061,0.0,7.26,33.66,32.4,197.26,79.9,153.75,0.0,1003.43,53.935,45.293674,14.277202,192.23,NaN,,4.75,12.903226,323.56,18 / 18,141541,2021-12-05 19:39:05:368
-1.269,-13.3361,-4.3241,-0.0987,-9.7667,-0.8785,-1.3499,-2.9972,7.8171,0.9106,-0.8892,-0.4429,0.0,9.84,39.9,25.68,163.15,84.83,173.59,0.0,1003.3,50.444,45.293674,14.277202,192.23,NaN,,4.75,12.903226,323.56,18 / 18,142040,2021-12-05 19:39:05:867
-1.324,-12.5005,0.0215,-0.5919,-9.5011,-2.3557,-0.6101,-0.9834,2.0468,-0.4957,0.5641,-0.0068,0.0,12.9,34.14,22.98,156.7,75.66,165.9,0.0,1003.43,59.373,45.29369,14.27719,192.23,NaN,,4.66,12.903226,326.11,17 / 18,142540,2021-12-05 19:39:06:367
0.0215,-6.3712,0.1173,-0.6744,-9.6422,-1.656,0.696,3.2711,1.7733,-0.0925,-0.5819,-0.1393,0.0,11.64,25.86,19.74,168.73,79.49,157.84,0.0,1003.4,55.619,45.29369,14.27719,192.23,NaN,,4.66,12.903226,326.11,17 / 18,143040,2021-12-05 19:39:06:867
-1.7981,-7.6928,-0.4453,-1.0966,-9.4699,-2.2998,2.3081,2.5432,2.5919,-0.5439,0.236,0.0274,0.0,11.88,19.56,29.4,183.77,74.94,154.51,0.0,1003.39,59.74,45.293697,14.277183,192.23,NaN,,4.5,12.903226,349.53,17 / 18,143540,2021-12-05 19:39:07:367
-2.7606,-6.1461,-2.909,-0.7286,-9.6475,-1.6017,0.0223,1.2579,0.4788,0.2917,-0.0419,-0.0776,0.0,7.02,26.88,37.32,196.03,79.66,155.54,0.0,1003.49,55.473,45.293697,14.277183,192.23,NaN,,4.5,12.903226,349.53,17 / 18,144040,2021-12-05 19:39:07:867
-0.771,-6.5364,-1.1109,-1.0078,-9.6001,-1.7296,0.2368,3.0638,0.6186,-0.5409,-0.1122,-0.0379,0.0,14.1,35.1,32.64,189.27,78.22,149.77,0.0,1003.34,59.203,45.29371,14.27718,192.22,NaN,,4.37,12.903226,335.61,20 / 20,144540,2021-12-05 19:39:08:367
2.0447,-9.8405,-7.609,-0.7053,-9.6815,-1.3935,2.7691,0.2337,-3.0072,0.1958,-0.3968,-0.0306,0.0,13.44,32.94,31.98,185.67,80.84,153.16,0.0,1003.51,48.862,45.29371,14.27718,192.22,NaN,,4.37,12.903226,335.61,20 / 20,145040,2021-12-05 19:39:08:867
-0.9649,-9.7375,-5.2506,-0.5963,-9.7845,-0.2812,2.4519,1.0262,-5.4746,-1.0051,1.1627,0.061,0.0,16.38,36.42,27.36,216.81,86.15,115.25,0.0,1003.35,54.559,45.29372,14.277171,192.22,NaN,,4.3,12.903226,335.36,17 / 17,145540,2021-12-05 19:39:09:367
-4.4294,-16.2428,-4.0056,-0.9227,-9.6246,-1.639,-3.5067,-6.6182,-2.3666,0.3119,0.1395,0.1838,0.0,11.34,32.16,35.16,194.61,78.94,150.62,0.0,1003.43,53.908,45.29372,14.277171,192.22,NaN,,4.3,12.903226,335.36,17 / 17,146040,2021-12-05 19:39:09:867
-0.9721,-17.38,-4.8915,-0.4527,-9.7439,-1.0107,-0.3086,-3.245,3.144,0.2911,-0.6338,-0.201,0.0,9.36,38.82,32.46,189.77,83.52,155.87,0.0,1003.4,55.121,45.293736,14.277167,192.21,NaN,,4.21,12.903226,350.07,17 / 19,146540,2021-12-05 19:39:10:367
-1.3935,-11.0711,0.1652,-0.7231,-9.5443,-2.1339,-0.5579,1.6528,1.9112,-0.4596,0.5317,0.0684,0.0,6.36,40.86,36.36,192.9,76.72,161.28,0.0,1003.44,59.745,45.293736,14.277167,192.21,NaN,,4.21,12.903226,350.07,17 / 19,147040,2021-12-05 19:39:10:867
0.0359,-9.5843,0.9457,-0.5483,-9.705,-1.2972,0.5843,0.1207,2.2429,-0.0742,-0.7365,0.1765,0.0,4.56,46.2,27.24,196.51,81.74,157.09,0.0,1003.63,55.903,45.293743,14.277167,192.2,NaN,,4.1,12.903226,354.79,17 / 18,147540,2021-12-05 19:39:11:367
-0.1891,-7.0607,0.8643,-0.7786,-9.5307,-2.1746,-0.0211,2.4581,2.5409,-0.1945,0.6361,0.0702,0.0,5.94,40.86,27.9,191.94,76.38,160.3,0.0,1003.47,58.367,45.293743,14.277167,192.2,NaN,,4.1,12.903226,354.79,17 / 18,148040,2021-12-05 19:39:11:867
-1.7047,-6.4741,-0.5387,-0.43,-9.687,-1.4656,-1.7296,3.0333,0.3068,0.1824,0.682,-0.154,0.0,2.46,39.84,25.32,195.86,81.04,163.65,0.0,1003.5,56.318,45.293755,14.277167,192.18,NaN,,4.04,12.903226,4.71,15 / 17,148540,2021-12-05 19:39:12:367
-1.439,-9.692,-5.0184,0.0347,-9.77,-0.8464,-1.4737,0.078,-4.172,-0.379,0.0961,0.4874,0.0,2.76,35.88,22.98,168.67,85.04,-177.65,0.0,1003.41,60.018,45.293755,14.277167,192.18,NaN,,4.04,12.903226,4.71,15 / 17,149040,2021-12-05 19:39:12:867
-1.6018,-13.1972,-3.7375,-0.7595,-9.6786,-1.3847,-0.8423,-3.5186,-2.3527,0.7267,0.0479,0.0635,0.0,1.74,27.36,26.64,209.36,80.73,151.26,0.0,1003.39,52.299,45.293774,14.277167,192.17,NaN,,4.02,12.903226,356.64,14 / 17,149540,2021-12-05 19:39:13:367
0.7446,-15.6011,-2.8803,-0.3963,-9.7638,-0.8254,0.6525,-6.5915,6.9189,0.0663,-0.2911,-0.0654,0.0,0.42,30.48,29.28,208.39,84.64,154.35,0.0,1003.34,49.583,45.293774,14.277167,192.17,NaN,,4.02,12.903226,356.64,14 / 17,150041,2021-12-05 19:39:13:868
-3.0312,-15.4239,-4.5204,-0.68,-9.617,-1.7946,-2.3511,-5.8069,-2.7258,0.618,0.2098,0.1685,0.0,-6.72,33.18,34.56,219.23,78.71,159.25,0.0,1003.43,55.071,45.29379,14.277167,192.15,NaN,,3.95,12.903226,355.49,13 / 17,150540,2021-12-05 19:39:14:367
-0.4405,-12.6466,2.2985,-0.3383,-9.7302,-1.1742,-0.2172,-5.2077,0.4847,0.1867,-0.3461,0.0152,0.0,-6.96,37.44,27.78,215.68,82.84,163.93,0.0,1003.38,56.838,45.29379,14.277167,192.15,NaN,,3.95,12.903226,355.49,13 / 17,151040,2021-12-05 19:39:14:867
-2.0375,-10.2331,-1.2905,-0.6279,-9.571,-2.0422,-1.3881,1.4329,2.126,-0.214,0.8542,0.0061,0.0,-7.62,34.14,31.26,221.09,77.42,162.91,0.0,1003.48,54.792,45.293793,14.277164,192.14,NaN,,3.86,12.903226,2.9,13 / 17,151540,2021-12-05 19:39:15:367
0.17,-6.8835,0.9793,-0.6378,-9.6997,-1.2961,0.8078,2.8161,2.2754,-0.1493,-0.4652,-0.2774,0.0,-9.96,38.46,29.1,234.09,81.53,153.8,0.0,1003.47,56.75,45.293793,14.277164,192.14,NaN,,3.86,12.903226,2.9,13 / 17,152040,2021-12-05 19:39:15:867
0.1317,-6.51,0.522,-0.917,-9.642,-1.5364,1.0439,3.5893,0.2004,-0.6508,0.5714,0.1032,0.0,-4.2,40.38,30.66,228.89,79.49,149.17,0.0,1003.41,56.686,45.293804,14.277163,192.13,NaN,,3.85,12.903226,357.56,12 / 17,152540,2021-12-05 19:39:16:367
0.34,-8.0663,-0.9888,-0.7779,-9.7173,-1.0673,2.5999,0.4131,-3.2855,0.1574,-0.3614,-0.055,0.0,-10.26,45.54,29.4,246.02,82.26,143.91,0.0,1003.68,54.108,45.293804,14.277163,192.13,NaN,,3.85,12.903226,357.56,12 / 17,153040,2021-12-05 19:39:16:867
-3.1748,-10.202,-2.696,-0.7648,-9.6992,-1.2291,-2.41,-0.5028,-1.4668,-0.1249,-0.2252,0.3072,0.0,-7.98,49.56,21.96,249.42,81.51,148.11,0.0,1003.31,56.433,45.29382,14.277162,192.11,NaN,,4.05,12.903226,345.88,12 / 17,153541,2021-12-05 19:39:17:368
-0.4118,-9.7758,-3.8476,-0.8706,-9.7044,-1.1117,2.3072,1.7722,-3.751,0.6357,0.2342,-0.0666,0.0,-9.78,42.72,15.96,269.44,81.72,141.93,0.0,1003.45,55.213,45.29382,14.277162,192.11,NaN,,4.05,12.903226,345.88,12 / 17,154041,2021-12-05 19:39:17:868
-3.2778,-13.6737,0.431,-0.2635,-9.7932,-0.4392,0.5747,-7.3426,-1.5002,1.0608,-0.7023,-0.4961,0.0,-8.4,35.52,14.7,244.81,87.01,149.04,0.0,1003.32,54.54,45.293835,14.277155,192.1,NaN,,4.29,12.903226,17.09,12 / 15,154540,2021-12-05 19:39:18:367
-0.9386,-11.0879,-1.2139,-0.7296,-9.5496,-2.1079,-0.2089,-1.5383,0.894,-0.0143,0.222,-0.0905,0.0,-6.0,28.08,25.14,223.24,76.85,160.91,0.0,1003.4,58.093,45.293835,14.277155,192.1,NaN,,4.29,12.903226,17.09,12 / 15,155040,2021-12-05 19:39:18:867
0.2035,-10.6713,1.6568,-0.4238,-9.6764,-1.5354,0.8117,2.9294,1.0996,-0.1071,-0.4445,-0.0428,0.0,-5.76,34.68,28.8,213.59,80.65,164.57,0.0,1003.44,58.602,45.293854,14.27716,192.09,NaN,,4.44,12.903226,36.99,12 / 16,155540,2021-12-05 19:39:19:367
-0.4597,-7.0847,0.5866,-0.8496,-9.5624,-2.0021,1.1992,2.6525,2.5695,-0.4914,0.2391,0.0849,0.0,-7.02,44.88,29.76,231.82,77.19,157.01,0.0,1003.46,54.701,45.293854,14.27716,192.09,NaN,,4.44,12.903226,36.99,12 / 16,156040,2021-12-05 19:39:19:867
-0.3232,-6.5292,0.4597,-0.4846,-9.7148,-1.2478,0.5828,3.8106,1.6931,0.045,-0.4182,-0.402,0.0,-13.2,50.28,13.56,265.21,82.15,158.77,0.0,1003.54,56.198,45.293865,14.27717,192.08,NaN,,4.59,12.903226,42.07,13 / 14,156540,2021-12-05 19:39:20:367
-2.4206,-10.0919,-2.162,-0.8575,-9.6001,-1.8093,1.7362,3.5593,1.0767,-0.5451,0.0772,-0.0275,0.0,-12.42,39.78,10.8,282.57,78.22,154.64,0.0,1003.44,58.617,45.293865,14.27717,192.08,NaN,,4.59,12.903226,42.07,13 / 14,157041,2021-12-05 19:39:20:868
-1.4605,-7.4941,-0.316,-0.6691,-9.6883,-1.3634,1.1887,1.6603,0.049,0.0095,-0.9759,-0.0825,0.0,-14.4,29.82,14.04,264.89,81.09,153.86,0.0,1003.41,55.322,45.293873,14.277178,192.07,NaN,,4.76,12.903226,65.26,15 / 16,157540,2021-12-05 19:39:21:367
0.4573,-8.9498,-3.5292,-0.2202,-9.7765,-0.7355,0.6775,0.8267,-2.7937,-0.8353,0.4901,0.2015,0.0,-13.68,29.28,21.84,233.23,85.51,163.34,0.0,1003.34,56.292,45.293873,14.277178,192.07,NaN,,4.76,12.903226,65.26,15 / 16,158040,2021-12-05 19:39:21:867
-3.3783,-16.5827,-4.7957,-0.6965,-9.6198,-1.7731,-2.6818,-6.9629,-3.0226,0.6155,-0.023,0.2608,0.0,-14.1,32.4,23.64,243.91,78.8,158.56,0.0,1003.4,57.306,45.29388,14.277198,192.05,NaN,,4.73,12.903226,65.4,15 / 18,158540,2021-12-05 19:39:22:367
0.3951,-13.1182,1.6161,-0.4846,-9.7027,-1.3392,-0.849,-4.0716,0.9729,0.1311,-0.3559,-0.0856,0.0,-14.34,34.92,22.8,241.07,81.65,160.11,0.0,1003.33,52.835,45.29388,14.277198,192.05,NaN,,4.73,12.903226,65.4,15 / 18,159040,2021-12-05 19:39:22:867
-1.6401,-14.5763,0.0263,-0.7999,-9.5806,-1.9342,-0.8401,-4.9957,1.9606,0.2899,0.6209,0.0946,0.0,-16.26,36.48,27.66,245.49,77.68,157.53,0.0,1003.46,55.359,45.293884,14.277209,192.03,NaN,,4.61,12.903226,35.93,15 / 18,159540,2021-12-05 19:39:23:367
0.601,-10.8078,1.9465,-0.5107,-9.715,-1.2365,0.1851,-2.7448,4.385,0.3119,-0.6687,-0.0037,0.0,-16.02,42.66,23.16,248.8,82.16,157.56,0.0,1003.3,54.746,45.293884,14.277209,192.03,NaN,,4.61,12.903226,35.93,15 / 18,160040,2021-12-05 19:39:23:867
-1.5156,-9.1246,-0.0383,-0.8545,-9.4907,-2.3168,-1.1256,2.5137,1.5458,-0.4376,0.7693,0.0018,0.0,-12.18,43.8,22.26,255.51,75.42,159.76,0.0,1003.4,57.489,45.293884,14.277209,192.03,NaN,,4.61,12.903226,35.93,14 / 15,160540,2021-12-05 19:39:24:367
-1.8364,-4.4964,-1.743,-0.7652,-9.6607,-1.5021,-1.0712,5.1642,-0.2409,0.0382,-0.263,-0.2035,0.0,-14.28,40.86,12.12,278.8,80.1,153.0,0.0,1003.43,56.86,45.293884,14.277209,192.03,NaN,,4.61,12.903226,35.93,14 / 15,161040,2021-12-05 19:39:24:867
1.087,-6.5244,0.182,-1.163,-9.5251,-2.0222,0.7392,2.5626,0.9519,-0.6814,-0.3706,-0.052,0.0,-12.96,31.8,15.24,273.9,76.24,150.1,0.0,1003.41,59.397,45.293896,14.277224,192.0,NaN,,4.46,12.903226,45.16,14 / 16,161540,2021-12-05 19:39:25:367
0.5076,-8.7008,-2.9617,-0.8167,-9.6682,-1.4245,1.9373,0.036,-5.7727,0.5068,-0.2936,-0.066,0.0,-16.26,25.8,22.68,253.56,80.36,150.17,0.0,1003.55,52.772,45.293896,14.277224,192.0,NaN,,4.46,12.903226,45.16,14 / 16,162041,2021-12-05 19:39:25:868
-3.7039,-11.2722,-4.5539,-0.4521,-9.6994,-1.3737,-3.2519,-1.5728,-3.1802,-0.3222,-0.2276,0.9162,0.0,-15.42,32.28,30.9,230.45,81.52,161.78,0.0,1003.31,56.352,45.293907,14.27724,191.98,NaN,,4.53,12.903226,45.52,14 / 16,162540,2021-12-05 19:39:26:367
-1.585,-10.8054,-3.2658,-0.9421,-9.6978,-1.1109,1.6844,1.5046,-2.6122,0.6961,0.2782,-0.1149,0.0,-18.36,37.74,28.38,262.91,81.46,139.7,0.0,1003.41,56.251,45.293907,14.27724,191.98,NaN,,4.53,12.903226,45.52,14 / 16,163040,2021-12-05 19:39:26:867
-2.5571,-15.0241,-2.3967,-0.4107,-9.7878,-0.4468,-0.334,-8.4685,-2.7017,1.3901,-0.3431,-0.1992,0.0,-19.02,40.32,23.22,266.92,86.45,137.41,0.0,1003.34,52.018,45.293915,14.277253,191.96,NaN,,4.55,12.903226,40.96,14 / 16,163541,2021-12-05 19:39:27:368
-0.9864,-13.2667,0.4956,-0.8085,-9.5109,-2.249,-0.1779,-3.7557,2.7447,-0.1475,0.1187,-0.0049,0.0,-18.72,36.54,24.66,253.97,75.89,160.23,0.0,1003.36,50.364,45.293915,14.277253,191.96,NaN,,4.55,12.903226,40.96,14 / 16,164040,2021-12-05 19:39:27:867
0.2706,-8.7654,0.9745,-0.2888,-9.6871,-1.4987,0.5594,0.9217,2.4731,0.0187,-0.7609,0.1215,0.0,-16.56,37.92,21.06,241.38,81.05,169.09,0.0,1003.4,59.373,45.293926,14.277264,191.94,NaN,,4.58,12.903226,44.33,15 / 16,164540,2021-12-05 19:39:28:367
-2.0878,-7.427,-0.3113,-0.8693,-9.5105,-2.2282,0.3857,3.7331,2.7932,-0.4731,0.324,0.0042,0.0,-12.18,36.66,24.42,247.05,75.88,158.69,0.0,1003.47,58.922,45.293926,14.277264,191.94,NaN,,4.58,12.903226,44.33,15 / 16,165040,2021-12-05 19:39:28:867
0.2035,-6.3736,-0.0694,-0.7506,-9.6886,-1.3181,0.9541,3.3151,1.2487,-0.2397,-0.9112,-0.1424,0.0,-9.18,34.56,17.16,253.59,81.1,150.34,0.0,1003.57,58.301,45.293945,14.277276,191.93,NaN,,4.69,19.35484,52.68,15 / 18,165540,2021-12-05 19:39:29:367
0.7207,-6.3281,-0.4765,-1.2739,-9.414,-2.434,1.8269,2.9542,2.5657,-0.5946,-0.2905,-0.1002,0.0,-3.18,32.76,24.18,234.5,73.73,152.37,0.0,1003.43,57.199,45.293945,14.277276,191.93,NaN,,4.69,19.35484,52.68,15 / 18,166040,2021-12-05 19:39:29:867
-2.4637,-6.589,-0.9002,-0.5855,-9.7142,-1.2087,-1.4209,2.4907,0.0068,0.0584,-0.979,-0.1198,0.0,-6.72,34.32,24.12,230.71,82.13,154.15,0.0,1003.49,54.143,45.29396,14.277295,191.91,NaN,,4.78,19.35484,45.5,15 / 19,166540,2021-12-05 19:39:30:367
-3.091,-10.0464,-6.6824,-0.4084,-9.7762,-0.6548,-2.6826,-0.2701,-6.0276,0.4164,-0.574,0.3219,0.0,-2.28,36.18,24.36,221.26,85.49,148.05,0.0,1003.42,55.232,45.29396,14.277295,191.91,NaN,,4.78,19.35484,45.5,15 / 19,167040,2021-12-05 19:39:30:867
0.1413,-8.3105,-4.3576,-1.0266,-9.5037,-2.1897,-1.8993,-6.3727,-2.2301,0.3925,-0.1623,0.0305,0.0,0.96,31.38,31.62,211.31,75.72,154.88,0.0,1003.37,57.252,45.293964,14.277299,191.9,NaN,,4.82,19.35484,7.1,14 / 16,167540,2021-12-05 19:39:31:367
-2.6026,-16.2045,6.6848,-0.6373,-9.6895,-1.3703,-0.8065,-5.4208,1.4469,-0.393,0.0363,-0.2756,0.0,4.08,34.32,27.54,200.82,81.14,155.06,0.0,1003.34,52.359,45.293964,14.277299,191.9,NaN,,4.82,19.35484,7.1,14 / 16,168040,2021-12-05 19:39:31:867
-1.439,-12.6059,-0.9386,-0.9418,-9.489,-2.2896,-0.7079,-5.0371,1.5498,0.056,0.3222,-0.0648,0.0,6.72,31.56,31.14,193.45,75.38,157.64,0.0,1003.41,56.495,45.29398,14.277297,191.88,NaN,,4.73,19.35484,359.67,15 / 16,168541,2021-12-05 19:39:32:368
0.4094,-6.8117,-0.9721,-0.9507,-9.5606,-1.9652,0.4622,-1.1394,2.7242,0.103,-0.701,-0.0764,0.0,9.24,33.24,28.86,191.67,77.14,154.19,0.0,1003.37,54.923,45.29398,14.277297,191.88,NaN,,4.73,19.35484,359.67,15 / 16,169040,2021-12-05 19:39:32:867
-2.0926,-7.4366,-1.0128,-1.0854,-9.347,-2.7614,0.5179,3.6678,2.4094,-0.3912,0.569,-0.0269,0.0,11.34,30.42,28.32,180.02,72.39,158.54,0.0,1003.38,59.656,45.293995,14.277297,191.87,NaN,,4.63,19.35484,351.58,16 / 17,169540,2021-12-05 19:39:33:367
-1.2809,-6.0431,-1.1804,-0.7591,-9.5701,-2.0019,-0.5219,3.5269,0.8215,0.326,0.0393,-0.0752,0.0,8.76,32.4,28.08,183.99,77.39,159.24,0.0,1003.46,52.215,45.293995,14.277297,191.87,NaN,,4.63,19.35484,351.58,16 / 17,170041,2021-12-05 19:39:33:868
-2.933,-9.2515,-3.5603,-0.8233,-9.4938,-2.3152,-2.1097,0.2423,-1.2451,-0.1102,-0.3339,0.6878,0.0,11.1,32.04,28.14,177.33,75.49,160.42,0.0,1003.36,59.148,45.294018,14.277288,191.85,NaN,,4.55,19.35484,332.73,13 / 16,170540,2021-12-05 19:39:34:367
1.1852,-8.0519,-4.4174,-0.9014,-9.4508,-2.4574,-0.2814,0.2209,-0.4588,0.3754,-0.1439,-0.2725,0.0,10.38,30.48,30.66,183.15,74.52,159.86,0.0,1003.42,53.164,45.294018,14.277288,191.85,NaN,,4.55,19.35484,332.73,13 / 16,171040,2021-12-05 19:39:34:867
1.5204,-15.8262,-8.3057,-0.496,-9.6237,-1.819,4.8656,1.1599,-4.2888,-0.853,0.9019,0.3885,0.0,11.28,33.66,27.78,171.9,78.92,164.75,0.0,1003.32,50.117,45.294033,14.277282,191.84,NaN,,3.12,19.35484,330.88,14 / 15,171540,2021-12-05 19:39:35:367
-3.1652,-15.6562,-1.5563,-0.9474,-9.4331,-2.5078,-2.2178,-6.2231,0.9515,0.194,0.6551,-0.1656,0.0,11.64,30.84,33.24,180.99,74.14,159.3,0.0,1003.35,54.436,45.294033,14.277282,191.84,NaN,,3.12,19.35484,330.88,14 / 15,172040,2021-12-05 19:39:35:867
0.5267,-11.0544,1.0224,-0.507,-9.6132,-1.8707,0.4016,-3.414,3.3216,0.2154,-0.5404,-0.1008,0.0,13.26,36.48,27.96,167.05,78.6,164.84,0.0,1003.38,55.215,45.294044,14.277272,191.82,NaN,,3.0,19.35484,308.0,15 / 19,172541,2021-12-05 19:39:36:368
-2.1716,-8.8852,-0.9745,-1.1038,-9.4525,-2.3667,-0.4453,2.9425,1.251,-0.2654,0.3496,0.072,0.0,17.52,36.18,28.62,170.03,74.56,155.0,0.0,1003.43,57.928,45.294044,14.277272,191.82,NaN,,3.0,19.35484,308.0,15 / 19,173040,2021-12-05 19:39:36:867
-1.269,-5.2818,-1.1014,-0.576,-9.5774,-2.0278,-0.693,4.2956,0.9264,0.0486,0.5054,-0.0666,0.0,12.24,37.32,27.96,177.59,78.33,158.57,0.0,1003.48,55.258,45.29406,14.277247,191.81,NaN,,3.29,19.35484,273.71,14 / 15,173540,2021-12-05 19:39:37:367
0.3328,-5.5356,0.3184,-0.8114,-9.5389,-2.1264,-2.4328,-0.7206,-1.6158,-0.0595,-0.1207,0.5485,0.0,13.5,36.54,28.26,171.88,76.58,159.11,0.0,1003.38,60.349,45.29406,14.277247,191.81,NaN,,3.29,19.35484,273.71,14 / 15,174040,2021-12-05 19:39:37:867
1.2522,-9.4837,-7.2738,-0.667,-9.6042,-1.8669,0.1522,2.3543,0.5692,0.0566,-0.5685,-0.0538,0.0,8.82,36.3,30.0,183.96,78.34,160.34,0.0,1003.35,53.14,45.294067,14.277212,191.8,NaN,,4.34,19.35484,252.59,15 / 17,174540,2021-12-05 19:39:38:367
-0.352,-9.9458,-5.0759,-0.3564,-9.6643,-1.6262,0.0044,-0.2815,-3.4497,-0.3051,0.5531,0.2706,0.0,9.78,35.88,30.66,173.09,80.23,167.64,0.0,1003.33,50.445,45.294067,14.277212,191.8,NaN,,4.34,19.35484,252.59,15 / 17,175040,2021-12-05 19:39:38:867
-2.3416,-14.9858,-0.3424,-0.9039,-9.5934,-1.8219,-2.6468,-6.3333,-2.0759,0.5117,0.897,0.0262,0.0,8.94,33.18,33.78,194.7,78.03,153.61,0.0,1003.31,54.151,45.294067,14.277175,191.78,NaN,,5.53,25.806452,242.19,13 / 15,175540,2021-12-05 19:39:39:367
0.0718,-16.5468,3.0503,-0.4063,-9.7197,-1.238,0.1333,-3.7601,2.6722,0.1317,-0.0676,0.1643,0.0,5.46,38.46,30.3,190.54,82.36,161.83,0.0,1003.27,53.035,45.294067,14.277175,191.78,NaN,,5.53,25.806452,242.19,13 / 15,176040,2021-12-05 19:39:39:867
-1.7023,-8.0543,0.1604,-0.8107,-9.5341,-2.148,-0.8917,1.4798,2.3084,-0.1701,1.2311,0.27,0.0,-1.38,41.04,29.1,209.05,77.84,161.82,0.0,1003.37,55.361,45.294067,14.277157,191.77,NaN,,5.13,25.806452,228.74,14 / 15,176540,2021-12-05 19:39:40:367
0.2011,-6.7327,0.3089,0.094,-9.7143,-1.3389,-0.6614,3.4773,1.5591,-0.0412,0.864,-0.1644,0.0,-12.48,44.16,18.18,220.37,82.13,-175.99,0.0,1003.22,52.445,45.294067,14.277157,191.77,NaN,,5.13,25.806452,228.74,14 / 15,177040,2021-12-05 19:39:40:867
-1.008,-5.933,0.1796,-0.5193,-9.6506,-1.6631,-0.4886,3.7176,1.8427,-0.4981,0.2256,0.0189,0.0,-12.3,43.68,16.56,254.34,79.77,162.66,0.0,1003.3,57.723,45.29407,14.27717,191.76,NaN,,2.99,25.806452,228.74,14 / 16,177540,2021-12-05 19:39:41:367
-1.7933,-7.7024,-0.0072,-0.2145,-9.7497,-1.0328,-1.258,2.7249,1.4901,0.1567,0.718,-0.1076,0.0,-14.76,44.52,11.64,257.46,83.83,168.27,0.0,1003.42,54.923,45.29407,14.27717,191.76,NaN,,2.99,25.806452,228.74,14 / 16,178040,2021-12-05 19:39:41:867
-1.5419,-9.5148,-6.0503,-0.307,-9.7564,-0.943,-1.6634,-0.8958,-3.1249,-0.4676,-0.8892,0.612,0.0,-15.12,43.68,10.8,265.68,84.2,161.96,0.0,1003.34,54.823,45.29408,14.277191,191.75,NaN,,0.15,25.806452,228.74,15 / 15,178540,2021-12-05 19:39:42:367
3.4813,-8.9235,-7.1038,-0.5406,-9.7209,-1.1754,0.2701,-2.8466,-2.6914,0.6375,0.1566,-0.1241,0.0,-15.78,42.42,13.92,268.76,82.42,155.3,0.0,1003.34,57.857,45.29408,14.277191,191.75,NaN,,0.15,25.806452,228.74,15 / 15,179040,2021-12-05 19:39:42:867
1.4916,-14.7607,1.1469,0.1157,-9.8044,0.176,1.376,-4.9563,0.9709,1.3149,-0.8373,-0.3776,0.0,-16.98,44.76,11.04,87.68,88.77,-33.32,0.0,1003.27,52.333,45.294083,14.277212,191.74,NaN,,1.98,19.35484,228.74,17 / 18,179540,2021-12-05 19:39:43:367
-1.0678,-11.4159,0.1269,-0.5032,-9.5761,-2.0533,-0.5646,-1.8398,2.1802,-0.0772,-0.0285,-0.1619,0.0,-15.84,44.7,17.22,262.14,77.55,166.23,0.0,1003.33,51.576,45.294083,14.277212,191.74,NaN,,1.98,19.35484,228.74,17 / 18,180041,2021-12-05 19:39:43:868
-0.6704,-13.9179,0.2777,-0.3725,-9.7389,-1.0883,0.6023,2.9464,1.366,-0.0729,-0.701,-0.1735,0.0,-16.08,45.72,12.06,267.79,83.26,161.11,0.0,1003.37,57.324,45.294086,14.277238,191.71,NaN,,1.71,19.35484,221.75,17 / 18,180540,2021-12-05 19:39:44:367
-1.7598,-7.2882,-1.0583,-0.874,-9.4711,-2.3882,-0.2369,0.0185,2.3451,-0.3527,0.4639,-0.1375,0.0,-13.26,43.62,21.18,260.3,74.97,159.9,0.0,1003.38,57.921,45.294086,14.277238,191.71,NaN,,1.71,19.35484,221.75,17 / 18,181040,2021-12-05 19:39:44:867
-0.0575,-6.5771,0.9457,-0.6083,-9.6874,-1.3977,0.8789,3.6586,2.3841,0.1647,-1.0425,-0.4637,0.0,-15.42,45.42,16.86,263.09,81.06,156.48,0.0,1003.6,51.352,45.294086,14.277248,191.67,NaN,,2.21,12.903226,78.17,16 / 16,181541,2021-12-05 19:39:45:368
0.8524,-5.5475,0.1508,-0.9007,-9.5912,-1.835,1.801,3.7827,1.8182,-0.7015,-0.2911,-0.0446,0.0,-12.96,42.84,19.2,263.97,77.97,153.86,0.0,1003.35,60.716,45.294086,14.277248,191.67,NaN,,2.21,12.903226,78.17,16 / 16,182040,2021-12-05 19:39:45:867
-1.9322,-7.0894,-1.1397,-0.5689,-9.7072,-1.2716,0.4204,1.6768,-1.9534,0.3351,-1.2184,-0.041,0.0,-14.82,41.7,21.36,252.68,81.83,155.9,0.0,1003.37,53.907,45.294086,14.277265,191.62,NaN,,2.59,12.903226,43.63,17 / 19,182540,2021-12-05 19:39:46:367
-1.5156,-9.9506,-4.4605,-0.5018,-9.76,-0.8131,-1.0138,-0.1906,-3.6474,-0.225,0.0741,0.014,0.0,-12.6,43.2,22.44,251.31,84.41,148.32,0.0,1003.32,55.21,45.294086,14.277265,191.62,NaN,,2.59,12.903226,43.63,17 / 19,183040,2021-12-05 19:39:46:867
0.9912,-8.6769,-4.0344,-0.9105,-9.6386,-1.5616,-1.977,-6.755,-2.6835,0.5465,-0.1794,0.2877,0.0,-12.54,43.02,25.98,252.41,79.38,149.75,0.0,1003.29,49.937,45.294098,14.277282,191.57,NaN,,3.51,12.903226,85.93,18 / 18,183540,2021-12-05 19:39:47:367
-1.2738,-8.2435,-3.4789,-0.6141,-9.7823,-0.3168,-0.6596,1.5388,-3.1621,-0.9593,0.7968,0.3426,0.0,-10.74,43.98,17.34,284.14,85.96,117.29,0.0,1003.2,51.863,45.294098,14.277282,191.57,NaN,,3.51,12.903226,85.93,18 / 18,184041,2021-12-05 19:39:47:868
-1.1971,-12.728,0.8907,-0.8015,-9.5812,-1.931,-1.1307,-4.7557,2.3141,0.0101,0.4657,0.0519,0.0,-11.7,37.74,25.14,244.26,77.69,157.46,0.0,1003.28,49.597,45.294106,14.277306,191.5,NaN,,3.9,12.903226,46.31,18 / 18,184540,2021-12-05 19:39:48:367
-1.9753,-12.9267,-0.9577,-0.6299,-9.7146,-1.183,0.9483,-0.8681,4.0585,0.2288,-0.6735,-0.0434,0.0,-13.38,40.14,21.48,252.22,82.15,151.97,0.0,1003.22,52.382,45.294106,14.277306,191.5,NaN,,3.9,12.903226,46.31,18 / 18,185040,2021-12-05 19:39:48:867
-1.2929,-7.1661,0.103,-1.1104,-9.5117,-2.1127,-0.1825,2.3457,2.2156,-0.448,0.2,-0.0049,0.0,-8.88,39.0,27.54,243.46,75.91,152.27,0.0,1003.31,57.879,45.294117,14.277329,191.44,NaN,,4.39,12.903226,64.52,18 / 18,185540,2021-12-05 19:39:49:367
0.3352,-7.1924,1.1923,-0.6651,-9.7422,-0.9044,-1.7148,3.2393,-0.7094,0.4164,0.1731,-0.1656,0.0,-11.58,40.38,24.54,251.13,83.43,143.67,0.0,1003.3,51.929,45.294117,14.277329,191.44,NaN,,4.39,12.903226,64.52,18 / 18,186040,2021-12-05 19:39:49:867
0.0575,-7.3744,-0.2442,-1.109,-9.6979,-0.9439,-2.2334,-0.8489,-2.6044,-1.1975,-1.1244,0.9456,0.0,-6.96,41.22,27.36,256.67,81.46,130.4,0.0,1003.33,58.491,45.294125,14.277354,191.36,NaN,,4.49,12.903226,66.99,19 / 19,186540,2021-12-05 19:39:50:367
-0.4142,-8.2291,-1.3456,-1.0222,-9.6333,-1.5248,0.608,1.4042,0.1792,0.2386,-1.4041,-0.1283,0.0,3.96,41.88,29.52,215.44,79.21,146.16,0.0,1003.38,56.506,45.294125,14.277354,191.36,NaN,,4.49,12.903226,66.99,19 / 19,187040,2021-12-05 19:39:50:867
1.9561,-9.4454,-6.9649,-0.7728,-9.7608,-0.5473,-0.6877,0.7535,-3.5134,-1.0155,0.0271,-0.1638,0.0,9.66,46.38,20.88,215.78,84.46,125.3,0.0,1003.22,52.12,45.294136,14.277373,191.29,NaN,,3.02,12.903226,33.99,18 / 19,187540,2021-12-05 19:39:51:367
-1.9681,-12.807,-3.5938,-1.1013,-9.6027,-1.6569,-2.6194,-7.8061,-1.5251,0.4426,-0.0651,0.1514,0.0,10.68,40.14,25.8,195.36,78.29,146.39,0.0,1003.34,51.724,45.294136,14.277373,191.29,NaN,,3.02,12.903226,33.99,18 / 19,188040,2021-12-05 19:39:51:867
0.5914,-15.7376,6.4693,-0.8159,-9.7188,-1.0243,0.1431,-4.0172,-0.1848,0.0822,-0.1311,0.0195,0.0,10.44,40.44,19.8,195.85,82.33,141.46,0.0,1003.21,52.835,45.294136,14.277373,191.29,NaN,,3.02,12.903226,33.99,19 / 19,188541,2021-12-05 19:39:52:368
-1.7382,-8.5883,0.1173,-0.8689,-9.4841,-2.3383,-0.8694,0.8958,2.4556,-0.3057,0.7217,-0.0239,0.0,8.46,35.16,26.94,185.95,75.26,159.62,0.0,1003.31,54.21,45.294136,14.277373,191.29,NaN,,3.02,12.903226,33.99,19 / 19,189040,2021-12-05 19:39:52:867
0.1461,-7.8652,0.3879,-0.6103,-9.7246,-1.1094,0.4283,3.1211,1.7391,-0.1065,-0.6064,-0.1485,0.0,6.0,36.3,21.18,196.46,82.58,151.18,0.0,1003.37,52.184,45.29415,14.277368,191.12,NaN,,3.75,12.903226,359.53,18 / 19,189540,2021-12-05 19:39:53:367
-1.8101,-7.5013,-0.2418,-0.8033,-9.5516,-2.0715,-1.0067,2.0504,1.8297,-0.3998,0.4071,-0.0471,0.0,8.7,30.6,26.76,183.8,76.91,158.8,0.0,1003.27,59.431,45.29415,14.277368,191.12,NaN,,3.75,12.903226,359.53,18 / 19,190041,2021-12-05 19:39:53:868
-1.609,-6.2874,-0.7925,-0.64,-9.7549,-0.7765,-0.4183,3.4747,0.8124,0.0993,-0.2881,-0.1943,0.0,8.52,34.86,26.16,203.5,84.11,140.5,0.0,1003.39,52.59,45.294163,14.277372,191.02,NaN,,4.03,12.903226,9.43,18 / 18,190540,2021-12-05 19:39:54:367
0.9625,-6.1461,-1.0463,-1.1142,-9.6712,-1.1819,0.7287,2.7565,0.4349,-0.875,-0.2197,-0.0135,0.0,18.18,38.4,24.72,189.65,80.47,136.69,0.0,1003.34,54.875,45.294163,14.277372,191.02,NaN,,4.03,12.903226,9.43,18 / 18,191040,2021-12-05 19:39:54:867
0.7374,-9.1102,-2.6361,-0.8014,-9.7365,-0.8531,1.9579,-0.1973,-5.6211,0.6161,-0.3785,-0.0013,0.0,18.06,38.64,25.08,188.85,83.15,136.79,0.0,1003.29,50.574,45.294186,14.277383,190.93,NaN,,4.03,12.903226,344.56,20 / 20,191540,2021-12-05 19:39:55:367
-1.9058,-12.3999,-2.1979,-0.3222,-9.7977,0.2653,-1.5836,-2.6022,-2.4632,-0.8115,0.3283,0.5736,0.0,21.0,39.12,12.24,252.99,87.56,50.54,0.0,1003.3,52.314,45.294186,14.277383,190.93,NaN,,4.03,12.903226,344.56,20 / 20,192040,2021-12-05 19:39:55:867
-0.3807,-10.3552,-2.5595,-0.7864,-9.5753,-1.9661,-1.22,-4.9556,2.7705,0.2068,0.5934,0.0445,0.0,20.34,29.94,17.88,145.19,77.53,158.2,0.0,1003.31,52.942,45.2942,14.277385,190.83,NaN,,3.76,12.903226,319.77,19 / 20,192541,2021-12-05 19:39:56:368
-0.1245,-14.2196,-0.5315,-0.6995,-9.7703,-0.4712,0.733,-7.672,-0.4362,1.2893,-0.5001,-0.2701,0.0,18.96,29.16,18.84,192.2,85.07,123.96,0.0,1003.24,53.106,45.2942,14.277385,190.83,NaN,,3.76,12.903226,319.77,19 / 20,193040,2021-12-05 19:39:56:867
-0.905,-12.5412,-0.5339,-0.7748,-9.5752,-1.9712,-0.1302,-2.966,1.4373,0.216,0.2666,0.08,0.0,16.68,28.74,27.9,167.54,77.53,158.54,0.0,1003.36,54.624,45.294212,14.277382,190.73,NaN,,3.67,12.903226,327.65,20 / 20,193540,2021-12-05 19:39:57:367
-0.0551,-6.795,-0.1604,-0.3336,-9.7237,-1.2279,0.7143,1.5736,1.86,0.0187,-0.3296,0.2113,0.0,12.9,37.26,28.2,168.41,82.55,164.8,0.0,1003.23,54.656,45.294212,14.277382,190.73,NaN,,3.67,12.903226,327.65,20 / 20,194041,2021-12-05 19:39:57:868
-1.2881,-7.0799,-0.4286,-0.7753,-9.5737,-1.9784,0.3012,3.564,1.897,-0.3393,0.3881,0.1362,0.0,13.92,37.32,27.6,172.83,77.49,158.6,0.0,1003.35,59.313,45.294224,14.277384,190.63,NaN,,3.66,12.903226,337.55,19 / 19,194540,2021-12-05 19:39:58:367
-1.5156,-5.5787,-1.1301,-0.3598,-9.6951,-1.4304,-0.7129,2.7373,1.44,0.169,0.3826,-0.0569,0.0,10.74,38.4,27.06,169.86,81.35,165.88,0.0,1003.28,52.6,45.294224,14.277384,190.63,NaN,,3.66,12.903226,337.55,19 / 19,195040,2021-12-05 19:39:58:867
0.7374,-6.2562,-1.3288,-0.4026,-9.7624,-0.8387,-1.8121,-1.0884,-5.7791,0.1989,-0.5074,0.3646,0.0,9.12,39.24,27.18,188.32,84.56,154.36,0.0,1003.31,56.842,45.294247,14.277379,190.53,NaN,,3.73,12.903226,335.13,20 / 20,195541,2021-12-05 19:39:59:368
2.1764,-11.2028,-7.8891,-0.4702,-9.7344,-1.0909,1.5261,1.3712,-0.0225,0.395,-1.0443,-0.0953,0.0,4.86,39.48,27.6,195.92,83.04,156.68,0.0,1003.45,53.832,45.294247,14.277379,190.53,NaN,,3.73,12.903226,335.13,20 / 20,196040,2021-12-05 19:39:59:867
-2.1955,-9.6322,-5.3416,-0.2785,-9.7998,-0.239,-1.917,0.1676,-5.1027,-0.09,0.0216,0.0757,0.0,4.68,39.42,23.22,219.38,87.86,130.63,0.0,1003.2,53.743,45.29426,14.277378,190.42,NaN,,3.75,12.903226,332.33,17 / 17,196540,2021-12-05 19:40:00:367
-3.2849,-15.8645,-0.9673,-0.7105,-9.6681,-1.481,-3.2377,-7.1134,-3.1759,0.822,-0.0743,0.2247,0.0,5.28,33.48,32.34,200.44,80.36,154.37,0.0,1003.3,52.506,45.29426,14.277378,190.42,NaN,,3.75,12.903226,332.33,17 / 17,197040,2021-12-05 19:40:00:867
-0.8955,-17.7703,-0.1508,-0.8337,-9.7543,-0.5727,0.283,-5.3583,6.0891,-0.2519,0.0326,-0.0446,0.0,11.22,41.1,25.98,218.04,84.08,124.48,0.0,1003.23,52.657,45.294277,14.277376,190.32,NaN,,3.75,12.903226,336.27,19 / 19,197540,2021-12-05 19:40:01:367
-1.7742,-10.3624,-0.7997,-0.7312,-9.5901,-1.9147,-1.0429,-0.7724,1.115,-0.1872,0.4792,-0.0019,0.0,10.62,38.82,28.74,180.18,77.94,159.1,0.0,1003.29,54.844,45.294277,14.277376,190.32,NaN,,3.75,12.903226,336.27,19 / 19,198041,2021-12-05 19:40:01:868
-0.9864,-11.9211,2.4398,-0.5083,-9.7433,-0.9898,0.5514,3.7121,1.4926,-0.0974,-0.4084,-0.1094,0.0,8.88,39.48,23.1,187.13,83.49,152.82,0.0,1003.35,50.694,45.29429,14.277373,190.21,NaN,,3.75,12.903226,331.73,20 / 21,198540,2021-12-05 19:40:02:367
-0.3424,-6.6393,0.6153,-0.6095,-9.5336,-2.2156,-1.2988,1.4098,1.6984,-0.3545,0.6789,-0.0617,0.0,12.0,35.16,28.86,170.04,76.45,164.62,0.0,1003.28,59.174,45.29429,14.277373,190.21,NaN,,3.75,12.903226,331.73,20 / 21,199040,2021-12-05 19:40:02:867
-0.6919,-5.9426,0.8404,-0.3814,-9.7216,-1.231,-0.3106,3.779,2.0714,0.0944,-0.2117,-0.1723,0.0,9.42,39.12,26.16,183.59,82.17,158.04,0.0,1003.37,52.96,45.2943,14.277372,190.11,NaN,,3.73,12.903226,337.72,19 / 19,199540,2021-12-05 19:40:03:367
-0.9266,-7.4725,-0.9721,-0.9777,-9.6019,-1.7373,0.8101,3.7239,0.6191,-0.5732,0.0491,0.0073,0.0,12.84,37.98,26.88,165.48,84.79,167.1,0.0,1003.29,55.654,45.2943,14.277372,190.11,NaN,,3.73,12.903226,337.72,19 / 19,200040,2021-12-05 19:40:03:867
0.7159,-8.6816,-1.7813,-0.839,-9.6919,-1.2386,2.3642,0.0525,-4.9578,0.4799,-0.7255,0.0733,0.0,10.86,37.14,28.62,196.49,81.23,145.88,0.0,1003.38,51.649,45.294315,14.277368,190.0,NaN,,3.73,12.903226,331.59,17 / 18,200540,2021-12-05 19:40:04:367
3.8045,-6.9673,-6.115,-0.4465,-9.6981,-1.3851,4.251,2.7307,-4.7299,-0.6429,0.704,0.273,0.0,13.32,38.28,27.36,170.22,81.47,162.13,0.0,1003.28,51.485,45.294315,14.277368,190.0,NaN,,3.73,12.903226,331.59,17 / 18,201041,2021-12-05 19:40:04:868
-1.2929,-10.1302,-3.2107,-0.7975,-9.5262,-2.1876,-0.766,-5.7157,1.5052,0.0999,0.8328,-0.0617,0.0,11.16,35.28,32.64,182.18,76.26,159.97,0.0,1003.27,49.796,45.294327,14.277361,189.89,NaN,,3.69,12.903226,328.08,19 / 19,201541,2021-12-05 19:40:05:368
-0.0527,-13.4989,2.4661,-0.1024,-9.7944,-0.4795,1.2421,-1.7939,2.7206,1.5355,-1.1916,-0.0856,0.0,10.44,39.6,25.44,169.46,87.13,167.95,0.0,1003.21,51.845,45.294327,14.277361,189.89,NaN,,3.69,12.903226,328.08,19 / 19,202040,2021-12-05 19:40:05:867
-2.3631,-9.8788,-0.7638,-1.0714,-9.4894,-2.2299,-0.8919,-1.4021,0.7838,-0.3771,0.3887,0.0299,0.0,12.24,35.52,30.72,186.48,75.39,154.34,0.0,1003.34,59.168,45.294334,14.277358,189.79,NaN,,3.58,12.903226,317.34,19 / 19,202540,2021-12-05 19:40:06:367
0.0623,-7.3911,-0.3735,-0.6666,-9.6032,-1.8717,0.8845,3.1626,1.0768,-0.131,-0.4995,-0.3287,0.0,10.8,37.5,29.4,178.4,78.31,160.4,0.0,1003.22,51.03,45.294334,14.277358,189.79,NaN,,3.58,12.903226,317.34,19 / 19,203040,2021-12-05 19:40:06:867
0.3232,-5.9761,0.4477,-1.2124,-9.4632,-2.2688,2.309,3.3483,2.9056,-0.3185,-0.0841,-0.0495,0.0,16.26,36.24,28.14,177.58,74.79,151.88,0.0,1003.29,56.184,45.294346,14.277354,189.68,NaN,,2.4,12.903226,317.34,18 / 18,203540,2021-12-05 19:40:07:367
1.257,-8.6002,-1.8077,-0.5896,-9.628,-1.7677,1.8466,1.0277,-0.04,0.1073,-0.9326,-0.0819,0.0,11.22,37.14,30.6,178.58,79.05,161.55,0.0,1003.38,50.026,45.294346,14.277354,189.68,NaN,,2.4,12.903226,317.34,18 / 18,204040,2021-12-05 19:40:07:867
-2.684,-10.1182,-3.1054,-0.5069,-9.6813,-1.4784,4.934,0.3724,-4.5839,-1.412,0.7137,0.2174,0.0,13.2,37.2,28.8,173.49,80.83,161.07,0.0,1003.24,50.256,45.294346,14.277354,189.68,NaN,,2.4,12.903226,317.34,18 / 18,204540,2021-12-05 19:40:08:367
1.6401,-8.4302,-6.7495,-0.5486,-9.6992,-1.3399,2.6724,0.735,-7.5764,0.5104,1.1664,-0.1986,0.0,9.54,38.28,31.08,185.37,81.51,157.73,0.0,1003.32,51.603,45.294346,14.277354,189.68,NaN,,2.4,12.903226,317.34,18 / 18,205040,2021-12-05 19:40:08:867
1.3145,-16.123,-2.0734,-0.1646,-9.8051,-0.05,1.1989,-3.7393,-9.1177,0.4035,0.4566,-0.0385,0.0,9.9,43.68,26.94,234.04,88.99,106.89,0.0,1003.15,53.361,45.294357,14.27735,189.47,NaN,,2.79,12.903226,358.71,19 / 20,205540,2021-12-05 19:40:09:367
-2.1955,-14.8014,0.3783,-0.8535,-9.5093,-2.2392,0.2621,-4.4636,3.0437,0.1616,0.4358,0.0525,0.0,8.22,37.5,34.68,191.21,75.86,159.14,0.0,1003.25,55.611,45.294357,14.27735,189.47,NaN,,2.79,12.903226,358.71,19 / 20,206040,2021-12-05 19:40:09:867
-0.5627,-12.4957,2.9497,-0.4703,-9.6862,-1.4584,0.6906,0.7555,2.2581,-0.0259,-0.5483,0.1453,0.0,4.68,40.68,28.62,190.49,81.01,162.13,0.0,1003.17,52.409,45.294376,14.277346,189.37,NaN,,3.59,12.903226,350.14,19 / 19,206540,2021-12-05 19:40:10:367
-0.5196,-6.2898,-0.1484,-1.0215,-9.4552,-2.3929,0.5019,3.1654,2.2445,-0.225,0.4022,-0.0361,0.0,12.66,36.6,27.72,177.23,74.61,156.88,0.0,1003.28,59.637,45.294376,14.277346,189.37,NaN,,3.59,12.903226,350.14,19 / 19,207040,2021-12-05 19:40:10:867
-1.19,-5.9091,-0.3065,-0.4939,-9.6826,-1.474,-0.969,3.9388,0.3535,0.3522,0.5757,-0.0758,0.0,6.3,40.2,26.46,187.37,80.88,161.48,0.0,1003.35,52.903,45.29439,14.27734,189.26,NaN,,4.06,12.903226,342.93,19 / 19,207540,2021-12-05 19:40:11:367
0.8595,-5.8564,-0.7757,-1.1405,-9.4901,-2.1923,2.0001,3.6338,1.4165,-0.6936,0.101,0.0195,0.0,8.1,39.66,27.0,197.83,75.4,152.51,0.0,1003.24,57.889,45.29439,14.27734,189.26,NaN,,4.06,12.903226,342.93,19 / 19,208040,2021-12-05 19:40:11:867
0.7997,-8.0974,-2.8588,-0.6006,-9.6737,-1.4926,0.9382,2.285,-0.272,0.1793,-0.7548,-0.1369,0.0,4.8,38.1,26.58,200.25,78.63,155.06,0.0,1003.31,51.704,45.29441,14.277331,189.15,NaN,,4.29,12.903226,341.35,17 / 18,208540,2021-12-05 19:40:12:367
-3.1652,-8.4255,-6.8069,-0.4422,-9.7233,-1.1965,-0.98,0.0624,-2.438,-0.3106,0.2238,0.0103,0.0,6.66,37.02,24.3,190.08,85.21,154.93,0.0,1003.23,52.517,45.29441,14.277331,189.15,NaN,,4.29,12.903226,341.35,17 / 18,209041,2021-12-05 19:40:12:868
-2.6002,-16.736,-4.0272,-0.8082,-9.5815,-1.9265,-1.792,-7.1545,-2.1007,0.4029,0.1658,0.0397,0.0,4.74,33.78,32.88,198.84,76.01,157.64,0.0,1003.23,49.434,45.294434,14.277325,189.05,NaN,,4.33,12.903226,354.77,19 / 19,209540,2021-12-05 19:40:13:367
1.1397,-14.5452,2.0064,-0.5408,-9.7205,-1.1787,-0.4744,-4.875,1.0135,-0.01,-0.0804,0.003,0.0,6.36,38.46,30.0,186.74,80.67,163.39,0.0,1003.19,52.002,45.294434,14.277325,189.05,NaN,,4.33,12.903226,354.77,19 / 19,210041,2021-12-05 19:40:13:868
-1.7119,-11.2172,-0.6752,-0.9194,-9.461,-2.4113,-1.0224,0.3843,2.8997,-0.3686,0.7357,0.0867,0.0,4.74,35.1,34.26,197.81,74.74,159.13,0.0,1003.32,57.253,45.29445,14.277322,188.94,NaN,,4.06,12.903226,354.57,19 / 19,210540,2021-12-05 19:40:14:367
0.34,-8.7247,1.8077,-0.2979,-9.6762,-1.5658,0.3698,-1.1124,5.0471,0.3095,-0.7359,0.2773,0.0,-2.94,38.94,29.16,194.12,79.75,175.33,0.0,1003.2,51.772,45.29445,14.277322,188.94,NaN,,4.06,12.903226,354.57,19 / 19,211040,2021-12-05 19:40:14:867
-0.9649,-6.3113,-0.4908,-0.951,-9.4968,-2.2532,-0.2438,2.5701,1.5253,-0.2519,0.5964,0.1881,0.0,-1.44,37.02,31.5,213.03,76.94,157.69,0.0,1003.31,60.166,45.294456,14.277321,188.84,NaN,,3.8,12.903226,357.89,18 / 19,211540,2021-12-05 19:40:15:367
-1.5347,-5.9234,-1.4677,-0.33,-9.659,-1.6629,-1.0707,3.9367,-0.2884,0.3883,0.6258,-0.0263,0.0,-7.26,38.58,28.32,220.21,79.34,163.67,0.0,1003.3,51.682,45.294456,14.277321,188.84,NaN,,3.8,12.903226,357.89,18 / 19,212041,2021-12-05 19:40:15:868
-0.6824,-7.1158,-1.1133,-0.9138,-9.6432,-1.5309,-1.7366,-0.5181,-1.359,-0.2385,-0.5025,0.3249,0.0,-6.0,39.54,28.02,241.86,86.51,134.58,0.0,1003.22,54.853,45.294468,14.277321,188.73,NaN,,3.66,12.903226,26.06,17 / 18,212540,2021-12-05 19:40:16:367
1.0511,-8.6074,-6.5675,-0.6976,-9.6537,-1.5779,1.7487,1.0463,-4.9896,0.8061,0.517,-0.1491,0.0,-9.48,38.94,27.42,229.52,76.1,160.7,0.0,1003.27,49.989,45.294468,14.277321,188.73,NaN,,3.66,12.903226,26.06,17 / 18,213040,2021-12-05 19:40:16:867
-0.7159,-8.6649,-3.1317,-0.1824,-9.7942,-0.4597,0.5895,-6.6665,-0.6273,1.9435,-1.7462,-0.6042,0.0,-7.56,41.64,23.22,224.35,87.11,158.36,0.0,1003.17,51.749,45.29448,14.277328,188.63,NaN,,3.63,12.903226,38.18,18 / 18,213540,2021-12-05 19:40:17:367
-4.9131,-15.8693,-3.6417,-0.7148,-9.5539,-2.0933,-4.1982,-6.3153,-1.5484,0.5428,0.0735,-0.154,0.0,-7.08,36.54,29.88,230.42,74.24,158.7,0.0,1003.23,53.922,45.29448,14.277328,188.63,NaN,,3.63,12.903226,38.18,18 / 18,214040,2021-12-05 19:40:17:867
-0.2729,-12.7974,2.332,-0.6175,-9.7131,-1.202,-0.8095,-4.7196,2.2818,0.0187,-0.4084,-0.2108,0.0,-7.68,38.82,26.52,229.99,80.78,156.74,0.0,1003.16,51.541,45.29449,14.277341,188.52,NaN,,3.67,12.903226,34.07,19 / 20,214540,2021-12-05 19:40:18:367
-2.4781,-10.1493,-0.1844,-0.7963,-9.5063,-2.2729,-1.5165,1.4592,1.3463,-0.2599,0.616,-0.0495,0.0,-4.26,36.78,30.24,227.69,76.3,153.3,0.0,1003.23,59.092,45.29449,14.277341,188.52,NaN,,3.67,12.903226,34.07,19 / 20,215040,2021-12-05 19:40:18:867
0.0814,-6.0455,0.0,-0.9119,-9.6801,-1.2784,0.8066,2.5404,3.2489,0.172,-0.6723,-0.2462,0.0,-3.72,40.32,27.24,235.53,80.79,144.5,0.0,1003.31,52.484,45.2945,14.277352,188.42,NaN,,3.74,12.903226,33.07,18 / 18,215540,2021-12-05 19:40:19:367
-0.3879,-7.8125,-0.6297,-1.5037,-9.5557,-1.6115,1.1158,1.7432,0.9818,-0.4779,-0.7536,0.0335,0.0,6.18,36.96,30.96,223.35,77.01,136.98,0.0,1003.32,58.695,45.2945,14.277352,188.42,NaN,,3.74,12.903226,33.07,18 / 18,216041,2021-12-05 19:40:19:868
-1.937,-6.9769,-0.7662,-1.0664,-9.6769,-1.1791,2.74,-1.0135,-5.3956,0.6931,0.0424,0.0183,0.0,1.92,38.76,29.58,227.71,80.67,137.87,0.0,1003.34,51.025,45.294518,14.277363,188.32,NaN,,3.73,12.903226,19.42,19 / 19,216540,2021-12-05 19:40:20:367
-0.4908,-8.7223,-3.51,-0.8811,-9.7179,-0.9782,-2.8899,-0.4243,-4.8878,-0.4944,-0.9955,0.5711,0.0,6.54,40.5,27.0,286.14,85.78,65.27,0.0,1003.16,52.408,45.294518,14.277363,188.32,NaN,,3.73,12.903226,19.42,19 / 19,217040,2021-12-05 19:40:20:867
-0.5507,-10.7192,-3.4813,-1.0782,-9.6934,-1.0227,0.5275,-1.0258,-2.4586,0.6864,-0.4695,-0.0856,0.0,5.82,36.24,32.76,199.11,78.05,155.15,0.0,1003.21,52.348,45.29453,14.277366,188.22,NaN,,3.69,12.903226,16.56,20 / 20,217540,2021-12-05 19:40:21:367
-0.2107,-15.0097,8.356,-0.5213,-9.7916,-0.1523,-2.1029,-1.3226,6.0782,1.7529,-1.0376,-0.2218,0.0,7.2,40.38,26.64,209.33,84.08,140.42,0.0,1003.11,53.558,45.29453,14.277366,188.22,NaN,,3.69,12.903226,16.56,20 / 20,218040,2021-12-05 19:40:21:867
-2.6361,-12.8405,2.5379,-0.8096,-9.5858,-1.9047,-0.2104,-0.6953,1.3756,-0.0345,0.2599,-0.0086,0.0,9.54,36.42,32.46,187.55,77.82,156.97,0.0,1003.22,59.488,45.29454,14.277366,188.12,NaN,,3.65,12.903226,353.65,19 / 20,218540,2021-12-05 19:40:22:367
-0.1772,-6.3065,0.5722,-0.6497,-9.7681,-0.5769,0.4725,3.4615,1.1492,-0.233,-0.442,0.0513,0.0,9.36,39.72,26.34,213.48,84.92,131.61,0.0,1003.11,53.382,45.29454,14.277366,188.12,NaN,,3.65,12.903226,353.65,19 / 20,219040,2021-12-05 19:40:22:867
-1.4222,-7.7527,0.3855,-1.1562,-9.556,-1.875,1.738,3.2256,2.5239,-0.3833,0.5421,0.0323,0.0,12.78,36.66,30.06,191.4,77.02,148.34,0.0,1003.28,55.694,45.29455,14.277364,188.02,NaN,,3.59,12.903226,13.72,19 / 19,219540,2021-12-05 19:40:23:367
-2.4972,-7.032,1.0726,-0.7893,-9.764,-0.4599,-0.4773,4.0872,1.0441,0.0834,-0.6442,-0.3269,0.0,8.16,39.66,26.88,212.55,83.75,135.88,0.0,1003.35,54.52,45.29455,14.277364,188.02,NaN,,3.59,12.903226,13.72,19 / 19,220040,2021-12-05 19:40:23:867
0.7279,-6.6082,1.3887,-1.0897,-9.6543,-1.3333,1.8175,3.0461,2.722,-0.6594,-0.0908,-0.0874,0.0,12.36,39.9,25.02,258.71,84.8,83.08,0.0,1003.21,52.834,45.29456,14.277366,187.93,NaN,,3.55,12.903226,10.29,19 / 19,220540,2021-12-05 19:40:24:367
0.6321,-10.7479,-1.8244,-0.7728,-9.7747,-0.1657,0.5693,0.1928,-1.4815,0.4035,-0.3376,-0.2481,0.0,7.44,39.06,28.26,246.24,83.04,108.56,0.0,1003.38,54.593,45.29456,14.277366,187.93,NaN,,3.55,12.903226,10.29,19 / 19,221040,2021-12-05 19:40:24:867
-2.3751,-10.9131,-7.2475,-0.7186,-9.7485,0.7882,-1.6613,0.6933,-5.2511,-0.1927,-0.8562,-0.2029,0.0,8.46,42.42,22.92,306.95,83.76,42.36,0.0,1003.12,55.145,45.294567,14.277369,187.83,NaN,,3.54,12.903226,20.38,19 / 19,221540,2021-12-05 19:40:25:367
-1.4868,-16.3074,-2.6744,-0.7564,-9.7513,-0.7147,-0.7304,-6.5561,-1.9597,0.7914,0.2934,0.4471,0.0,8.82,38.52,28.08,213.41,83.91,133.38,0.0,1003.25,54.689,45.294567,14.277369,187.83,NaN,,3.54,12.903226,20.38,19 / 19,222040,2021-12-05 19:40:25:867
-3.7853,-13.9083,-2.6816,-0.6833,-9.7775,0.3229,0.7431,-4.2961,2.2629,-0.0968,-0.1574,0.0537,0.0,9.48,42.06,24.3,281.82,85.58,64.71,0.0,1003.23,56.026,45.29458,14.277371,187.73,NaN,,3.53,12.903226,18.13,19 / 19,222540,2021-12-05 19:40:26:367
-0.9074,-11.4351,0.771,-0.896,-9.7225,-0.9161,-1.029,-4.0685,1.5889,0.3809,1.0137,0.1912,0.0,10.38,37.68,30.3,195.9,79.76,149.26,0.0,1003.3,58.535,45.29458,14.277371,187.73,NaN,,3.53,12.903226,18.13,19 / 19,223040,2021-12-05 19:40:26:867
-0.601,-7.7766,1.6664,-0.939,-9.7595,0.2021,-0.1385,-0.907,2.5537,-0.2464,-0.6778,0.1209,0.0,5.7,42.48,22.98,268.49,85.93,84.12,0.0,1003.3,53.343,45.294594,14.277376,187.64,NaN,,3.56,12.903226,21.67,19 / 19,223540,2021-12-05 19:40:27:367
-0.1293,-7.4366,0.4334,-0.8757,-9.6368,-1.5922,0.7464,2.2002,2.0255,-0.4517,0.8774,0.0427,0.0,12.48,38.28,27.66,204.33,80.27,137.77,0.0,1003.28,55.322,45.294594,14.277376,187.64,NaN,,3.56,12.903226,21.67,19 / 19,224040,2021-12-05 19:40:27:867
-0.6488,-5.3512,-0.6081,-0.7557,-9.7717,-0.3349,-0.53,2.4979,1.6829,0.362,0.1126,-0.2157,0.0,6.9,41.34,24.84,236.97,85.16,113.9,0.0,1003.56,54.753,45.2946,14.27738,187.55,NaN,,3.53,12.903226,21.85,18 / 18,224541,2021-12-05 19:40:28:368
1.099,-6.6752,-0.1269,-1.1673,-9.6645,-1.1853,2.5488,1.7562,2.2842,-1.0259,-0.6571,-0.0251,0.0,14.52,37.86,27.3,199.84,80.23,135.44,0.0,1003.31,52.925,45.2946,14.27738,187.55,NaN,,3.53,12.903226,21.85,18 / 18,225040,2021-12-05 19:40:28:867
-2.8228,-6.9913,0.6297,-0.7171,-9.754,-0.7185,1.9501,-1.0322,-3.438,0.274,-0.4646,-0.0117,0.0,8.64,39.12,27.72,211.37,84.06,135.05,0.0,1003.38,55.374,45.29461,14.277378,187.46,NaN,,3.47,12.903226,2.23,21 / 21,225540,2021-12-05 19:40:29:367
-3.613,-10.8604,-7.2116,-1.0143,-9.6499,-1.4215,0.3559,1.4447,1.0432,-0.7113,-1.1653,-0.0398,0.0,8.82,39.42,27.24,284.82,88.39,58.88,0.0,1003.29,55.031,45.29461,14.277378,187.46,NaN,,3.47,12.903226,2.23,21 / 21,226040,2021-12-05 19:40:29:867
2.435,-10.4199,-5.5691,-0.7345,-9.7181,-1.0908,3.1695,-0.7018,-4.4783,0.384,0.0289,-0.0459,0.0,9.78,36.3,30.96,198.11,80.88,147.35,0.0,1003.28,55.285,45.29462,14.277375,187.37,NaN,,3.43,12.903226,334.1,20 / 20,226540,2021-12-05 19:40:30:367
-2.1309,-12.2826,-1.1421,0.4861,-9.7912,-0.2565,1.573,0.5493,-4.4722,-0.7363,1.1077,-0.2493,0.0,10.74,39.06,23.16,185.59,86.12,149.44,0.0,1003.21,55.001,45.29462,14.277375,187.37,NaN,,3.43,12.903226,334.1,20 / 20,227040,2021-12-05 19:40:30:867
0.1532,-10.633,-4.2834,-0.4602,-9.6193,-1.8511,-2.3411,-6.1158,-3.5839,0.3137,0.2379,0.3878,0.0,6.72,34.2,31.98,182.08,78.78,166.04,0.0,1003.25,53.985,45.294632,14.277368,187.28,NaN,,3.41,12.903226,357.99,19 / 19,227540,2021-12-05 19:40:31:367
-1.5371,-10.4319,5.696,-0.1529,-9.8007,-0.3045,0.0691,-3.7102,1.1186,0.362,-0.2936,-0.063,0.0,7.44,40.44,25.44,191.65,88.01,153.34,0.0,1003.17,53.62,45.294632,14.277368,187.28,NaN,,3.41,12.903226,357.99,19 / 19,228040,2021-12-05 19:40:31:867
-2.7223,-13.4534,-0.1173,-0.347,-9.5671,-2.1261,-0.0552,0.2797,3.0024,0.0553,0.831,-0.1265,0.0,6.36,34.68,33.24,178.61,77.31,170.73,0.0,1003.32,60.301,45.294647,14.277363,187.2,NaN,,3.38,12.903226,357.15,20 / 21,228540,2021-12-05 19:40:32:367
0.6273,-9.3472,2.6983,0.0678,-9.7945,-0.4833,-0.1923,-4.0492,0.4522,0.2972,-0.1128,-0.2407,0.0,6.36,39.54,28.44,158.36,85.16,-173.01,0.0,1003.29,53.712,45.294647,14.277363,187.2,NaN,,3.38,12.903226,357.15,20 / 21,229040,2021-12-05 19:40:32:867
-1.6712,-9.5244,0.8117,-0.3441,-9.5691,-2.1176,-1.3271,0.0447,2.9293,0.1146,0.5305,-0.0336,0.0,9.78,35.76,33.06,173.82,76.57,167.66,0.0,1003.32,62.457,45.294655,14.277358,187.12,NaN,,3.32,12.903226,2.22,18 / 18,229540,2021-12-05 19:40:33:367
-0.3496,-3.8644,-0.5267,-0.2977,-9.7631,-0.8738,0.542,4.7567,0.7709,-0.1719,-0.3993,0.0836,0.0,6.18,38.52,29.46,178.38,82.73,169.65,0.0,1003.37,53.701,45.294655,14.277358,187.12,NaN,,3.32,12.903226,2.22,18 / 18,230041,2021-12-05 19:40:33:868
-1.1229,-6.2945,-0.0718,-0.5709,-9.5902,-1.9679,0.7768,4.0067,3.1698,-0.3985,0.6111,0.1356,0.0,9.42,36.78,31.5,180.63,77.94,163.82,0.0,1003.4,55.52,45.294662,14.277354,187.03,NaN,,3.3,12.903226,12.53,18 / 20,230540,2021-12-05 19:40:34:367
-1.5467,-5.9426,1.8771,-0.3591,-9.7607,-0.8773,-2.5068,3.6673,0.2141,0.1726,0.1181,-0.1607,0.0,6.12,39.9,27.9,191.8,84.45,157.74,0.0,1003.33,52.075,45.294662,14.277354,187.03,NaN,,3.3,12.903226,12.53,18 / 20,231040,2021-12-05 19:40:34:867
0.8428,-5.6696,1.0655,-0.6546,-9.7248,-1.0818,-0.442,-1.229,-0.2949,-0.6123,-1.4799,0.2852,0.0,10.44,37.8,28.62,194.57,82.59,148.82,0.0,1003.33,57.465,45.294685,14.277354,186.95,NaN,,3.29,12.903226,0.91,19 / 19,231540,2021-12-05 19:40:35:367
-0.6632,-9.1509,-1.1852,-0.3568,-9.7225,-1.2311,-1.2282,3.2149,0.4578,0.1409,0.4779,-0.0685,0.0,5.7,38.16,29.64,196.27,83.08,154.94,0.0,1003.52,54.903,45.294685,14.277354,186.95,NaN,,3.29,12.903226,0.91,19 / 19,232040,2021-12-05 19:40:35:867
-1.099,-9.8165,-7.0416,-0.4888,-9.7346,-1.0812,-1.6134,-1.5592,-2.0313,-0.5738,-0.8874,0.4868,0.0,7.56,39.66,27.24,320.83,88.36,24.13,0.0,1003.21,57.386,45.2947,14.277345,186.86,NaN,,3.24,12.903226,356.33,17 / 18,232540,2021-12-05 19:40:36:367
2.8971,-9.7662,-7.7167,-0.5608,-9.758,-0.7987,3.4579,-0.0083,-6.9181,0.4982,1.1083,0.1215,0.0,5.1,36.24,31.44,189.06,81.71,163.36,0.0,1003.36,57.365,45.2947,14.277345,186.86,NaN,,3.24,12.903226,356.33,17 / 18,233040,2021-12-05 19:40:36:867
-4.3504,-14.0089,0.3783,-0.2788,-9.7833,0.6161,-4.0716,-4.2256,-0.2378,-0.8921,-0.1763,0.1576,0.0,6.48,40.56,25.86,325.99,86.05,24.35,0.0,1003.21,54.013,45.294712,14.277341,186.78,NaN,,2.44,12.903226,3.55,19 / 20,233540,2021-12-05 19:40:37:367
-1.9729,-17.3657,-3.7925,-0.4981,-9.7051,-1.3161,-2.5809,-5.4003,0.3369,0.3266,0.8915,0.1563,0.0,4.44,36.96,31.14,196.27,81.75,159.27,0.0,1003.28,59.889,45.294712,14.277341,186.78,NaN,,2.44,12.903226,3.55,19 / 20,234040,2021-12-05 19:40:37:867
0.601,-15.455,7.1158,-0.592,-9.7772,-0.4752,-0.5907,-2.0721,2.7809,0.2875,-0.8617,-0.0245,0.0,8.22,41.16,25.5,218.39,85.56,128.75,0.0,1003.28,51.658,45.29472,14.277343,186.77,NaN,,1.47,12.903226,3.55,17 / 18,234540,2021-12-05 19:40:38:367
-1.7406,-14.2459,1.9753,-0.5969,-9.6595,-1.5837,-1.1438,-4.5864,3.559,0.2893,0.4596,0.0342,0.0,6.06,35.82,31.68,191.1,78.06,161.04,0.0,1003.32,57.108,45.29472,14.277343,186.77,NaN,,1.47,12.903226,3.55,17 / 18,235040,2021-12-05 19:40:38:867
0.4453,-7.2858,0.6081,-0.5416,-9.7741,-0.5855,1.2814,0.4772,1.7899,-0.0076,-0.6583,0.1582,0.0,5.28,39.78,27.12,201.01,84.01,151.73,0.0,1003.35,53.731,45.294724,14.27734,186.69,NaN,,1.08,12.903226,3.55,17 / 18,235540,2021-12-05 19:40:39:367
-1.3791,-6.613,0.9673,-0.6592,-9.5773,-2.0026,-0.2626,4.0777,1.7632,-0.2562,1.1645,0.0323,0.0,10.2,36.54,29.28,203.7,80.18,142.34,0.0,1003.42,59.348,45.294724,14.27734,186.69,NaN,,1.08,12.903226,3.55,17 / 18,236040,2021-12-05 19:40:39:867
-0.5674,-4.8987,1.0247,-0.455,-9.7601,-0.8383,-1.1348,3.7242,1.5948,0.2887,0.1071,-0.2829,0.0,4.74,39.48,28.02,218.42,84.68,136.12,0.0,1003.6,52.074,45.29473,14.277341,186.61,NaN,,1.13,12.903226,5.96,17 / 18,236540,2021-12-05 19:40:40:367
1.2977,-7.4965,0.3184,-0.9328,-9.6789,-1.2727,2.2305,2.1824,1.5911,-0.7907,-0.4048,0.025,0.0,9.9,38.46,28.98,201.7,80.74,143.76,0.0,1003.38,60.054,45.29473,14.277341,186.61,NaN,,1.13,12.903226,5.96,17 / 18,237041,2021-12-05 19:40:40:868
-1.9729,-5.842,-0.8524,-0.8414,-9.7096,-1.089,2.6922,-1.3711,-2.8304,0.285,-0.8428,-0.0727,0.0,9.12,39.0,29.76,205.54,81.93,142.31,0.0,1003.44,54.156,45.29473,14.277341,186.61,NaN,,1.13,12.903226,5.96,19 / 19,237540,2021-12-05 19:40:41:367
-3.7877,-10.1445,-5.2363,-0.1535,-9.8034,-0.2011,-1.0963,0.0682,-3.8692,-0.6826,0.8164,0.3494,0.0,8.16,39.9,28.5,202.71,88.52,142.64,0.0,1003.34,56.632,45.29473,14.277341,186.61,NaN,,1.13,12.903226,5.96,19 / 19,238040,2021-12-05 19:40:41:867
2.6481,-10.19,-7.7144,-1.0167,-9.6998,-1.0248,3.6648,-0.4902,-6.6896,0.241,0.4046,0.0635,0.0,7.86,37.56,31.44,202.69,80.25,147.59,0.0,1003.35,57.732,45.294746,14.277335,186.46,NaN,,2.06,12.903226,341.76,17 / 18,238540,2021-12-05 19:40:42:367
2.0854,-16.0847,-6.5292,-0.6929,-9.7707,0.4724,-3.4229,-3.1871,-1.3224,-0.8481,-0.362,0.2309,0.0,10.2,40.2,26.7,217.94,84.73,126.37,0.0,1003.36,52.975,45.294746,14.277335,186.46,NaN,,2.06,12.903226,341.76,17 / 18,239040,2021-12-05 19:40:42:867
-2.1501,-13.9969,2.3727,-0.829,-9.651,-1.5303,-1.108,-5.4138,5.4162,0.2844,1.0088,0.2657,0.0,6.84,35.1,31.98,191.05,77.43,159.42,0.0,1003.4,52.849,45.29477,14.277323,186.39,NaN,,2.74,12.903226,349.34,17 / 18,239540,2021-12-05 19:40:43:367
0.4022,-15.2635,3.5316,-0.8594,-9.7679,-0.1375,0.4212,-1.4373,0.6523,0.3974,-0.7566,0.0696,0.0,5.04,38.22,28.8,257.63,84.91,99.09,0.0,1003.21,55.207,45.29477,14.277323,186.39,NaN,,2.74,12.903226,349.34,17 / 18,240040,2021-12-05 19:40:43:867
-1.8029,-8.7798,0.7757,-0.7944,-9.6174,-1.7451,-1.0995,2.3172,2.109,-0.1285,1.2146,0.0171,0.0,3.96,34.74,32.52,202.49,78.72,155.52,0.0,1003.41,55.863,45.294785,14.277324,186.32,NaN,,3.48,12.903226,26.45,17 / 17,240541,2021-12-05 19:40:44:368
-0.1508,-8.356,1.3599,-0.7463,-9.7448,-0.8071,0.4016,3.965,2.0785,-0.0296,-0.2942,-0.2725,0.0,-0.6,38.58,28.98,231.73,83.56,137.24,0.0,1003.33,51.837,45.294785,14.277324,186.32,NaN,,3.48,12.903226,26.45,17 / 17,241040,2021-12-05 19:40:44:867
-0.735,-5.7582,0.5531,-0.9072,-9.5952,-1.8111,-0.8838,2.5057,2.0074,-0.233,1.0656,0.0482,0.0,3.18,36.78,32.7,215.23,77.8,148.07,0.0,1003.39,57.792,45.294796,14.277322,186.24,NaN,,3.32,12.903226,34.59,17 / 17,241540,2021-12-05 19:40:45:367
-0.6512,-5.763,0.9793,-0.7648,-9.6774,-1.3905,0.1136,3.9144,2.3697,-0.1719,-0.2142,-0.176,0.0,0.9,38.4,30.48,222.21,82.12,142.88,0.0,1003.38,56.654,45.294796,14.277322,186.24,NaN,,3.32,12.903226,34.59,17 / 17,242040,2021-12-05 19:40:45:867
0.0263,-6.5771,-0.8979,-1.5381,-9.4634,-2.0612,1.5644,2.8863,1.1634,-0.8121,-0.7621,-0.1296,0.0,3.84,37.5,30.9,210.7,83.99,145.82,0.0,1003.33,59.748,45.294807,14.277322,186.17,NaN,,3.05,12.903226,18.84,17 / 17,242540,2021-12-05 19:40:46:367
-1.0343,-7.2187,-2.1046,-1.1318,-9.644,-1.3719,2.6354,-1.3265,-2.9905,0.3412,-0.2728,0.0226,0.0,6.06,36.78,30.78,216.29,79.55,140.48,0.0,1003.48,57.706,45.294807,14.277322,186.17,NaN,,3.05,12.903226,18.84,17 / 17,243040,2021-12-05 19:40:46:867
-3.1916,-11.4087,-7.4941,-1.0541,-9.7305,-0.6142,2.8426,0.0121,-4.7586,-1.1462,1.1572,0.2095,0.0,6.78,37.14,31.56,234.23,82.85,120.23,0.0,1003.26,54.195,45.29482,14.27732,186.1,NaN,,3.07,12.903226,353.47,17 / 17,243540,2021-12-05 19:40:47:367
2.8923,-9.7112,-7.0368,-1.0723,-9.6436,-1.4217,-2.4042,-6.3023,-2.074,0.8574,0.3429,0.0323,0.0,2.88,36.78,31.56,219.9,79.54,142.97,0.0,1003.34,52.093,45.29482,14.27732,186.1,NaN,,3.07,12.903226,353.47,17 / 17,244040,2021-12-05 19:40:47:867
-3.194,-13.9131,-0.3352,-0.9139,-9.7599,0.2825,0.5356,1.0639,-5.1501,-0.9489,1.3154,0.0989,0.0,3.72,40.74,25.74,268.25,84.04,92.36,0.0,1003.23,53.053,45.294834,14.277319,186.04,NaN,,3.21,12.903226,1.73,16 / 17,244541,2021-12-05 19:40:48:368
-2.2434,-13.3624,1.1421,-1.0352,-9.6584,-1.3468,-1.9984,-5.5165,-0.5854,0.6558,0.7669,0.1893,0.0,0.36,35.64,33.0,214.77,77.09,153.97,0.0,1003.34,51.872,45.294834,14.277319,186.04,NaN,,3.21,12.903226,1.73,16 / 17,245040,2021-12-05 19:40:48:867
-0.1269,-14.1502,4.8532,-0.8922,-9.7509,-0.5419,1.5602,-5.2779,0.4461,0.0957,0.1542,0.0378,0.0,-4.62,39.06,27.42,228.04,82.26,150.93,0.0,1003.29,53.856,45.29485,14.277321,185.97,NaN,,3.42,12.903226,21.73,18 / 19,245540,2021-12-05 19:40:49:367
-1.2259,-9.5986,0.2107,-0.7017,-9.5415,-2.1535,-0.5242,-0.0572,2.3642,-0.1591,1.079,0.0971,0.0,-8.34,36.48,30.18,224.79,76.65,161.95,0.0,1003.37,56.505,45.29485,14.277321,185.97,NaN,,3.42,12.903226,21.73,18 / 19,246040,2021-12-05 19:40:49:867
0.1796,-8.8995,1.4797,-0.3926,-9.6728,-1.5661,0.5435,3.3064,2.4424,0.1317,-0.0951,-0.0752,0.0,-13.02,39.48,24.12,233.96,80.52,165.93,0.0,1003.37,54.041,45.294865,14.277325,185.9,NaN,,3.58,12.903226,36.52,17 / 18,246540,2021-12-05 19:40:50:367
